"Time (s)","Linear Acceleration x (m/s^2)","Linear Acceleration y (m/s^2)","Linear Acceleration z (m/s^2)","Absolute acceleration (m/s^2)"
1.171583310E-3,4.752507247E-2,-1.547752136E-1,-1.193416715E-1,2.011378478E-1
1.115858322E-2,-7.384282367E-2,-5.474075586E-2,-1.347192639E-1,1.630907509E-1
2.114658291E-2,-2.307673093E-2,4.383072853E-3,-7.258090317E-2,7.628718335E-2
3.113358328E-2,-2.024890780E-3,-3.436481729E-2,-3.138551474E-2,4.658423967E-2
4.112058319E-2,-1.824978132E-2,-5.316697776E-2,-2.589439452E-2,6.188943133E-2
5.110758310E-2,-2.804101702E-2,-4.792582601E-2,8.580788970E-3,5.618552637E-2
6.109558325E-2,-7.339200335E-2,-2.954466507E-2,6.986428678E-2,1.055475815E-1
7.108258316E-2,-6.787605073E-2,-3.210004449E-2,1.159596419E-1,1.381456104E-1
8.106958307E-2,-7.735793218E-3,-3.638956189E-2,1.402571619E-1,1.451072506E-1
9.105658298E-2,7.429941813E-2,-3.728637859E-2,1.647675204E-1,1.845508422E-1
1.010445831E-1,1.587836992E-1,-4.001074255E-2,1.231189728E-1,2.048692366E-1
1.110315830E-1,1.285894816E-1,-2.287123784E-2,6.447198451E-2,1.456536477E-1
1.210185830E-1,2.969583387E-2,-2.810566530E-2,3.249005377E-2,5.222427180E-2
1.310055833E-1,-7.358574718E-3,5.078160614E-3,5.687118888E-2,5.756968353E-2
1.409935830E-1,1.521975417E-3,3.455207437E-2,9.762335837E-2,1.035687325E-1
1.509805829E-1,6.932330970E-2,-5.805700421E-3,1.200474304E-1,1.387472990E-1
1.609675833E-1,1.023128253E-1,-3.652872562E-2,1.186341584E-1,1.608611997E-1
1.709545832E-1,6.457809320E-2,-4.845324486E-2,1.057123965E-1,1.330156300E-1
1.809425829E-1,9.570759125E-3,6.432521939E-3,1.393011421E-1,1.397776268E-1
1.909295833E-1,8.377791915E-2,1.490762249E-2,1.654890668E-1,1.860849489E-1
2.009165832E-1,1.325566164E-1,-3.799696147E-2,1.343070352E-1,1.924926111E-1
2.109045833E-1,1.099012870E-1,-4.218020573E-2,7.579394817E-2,1.400078041E-1
2.208915832E-1,8.261626013E-2,-3.382000297E-2,7.279725015E-2,1.151897507E-1
2.308785832E-1,2.956893101E-2,-3.846473873E-2,8.154877782E-2,9.488973058E-2
2.408655831E-1,1.443873061E-2,-2.200234160E-2,1.081664729E-1,1.113219019E-1
2.508535832E-1,3.633865457E-2,-2.805420980E-2,1.234475863E-1,1.317074146E-1
2.608405831E-1,1.983854290E-2,-1.539995804E-2,9.878169179E-2,1.019242323E-1
2.708275830E-1,2.902411669E-2,-1.794291213E-2,5.697234571E-2,6.640930373E-2
2.808145829E-1,1.605203222E-2,-2.306770429E-2,7.615238249E-2,8.117248351E-2
2.908025831E-1,6.911531327E-2,-8.155111670E-3,1.249099749E-1,1.429892801E-1
3.007895830E-1,1.086872771E-1,-2.902002364E-2,1.477246410E-1,1.856815972E-1
3.107765829E-1,6.027666209E-2,-7.061112240E-2,1.429708546E-1,1.704695629E-1
3.207638334E-1,3.261388684E-2,-6.526340514E-2,1.107795936E-1,1.326465078E-1
3.307518330E-1,8.425159844E-2,-7.384711772E-2,4.748933136E-2,1.216838742E-1
3.407388330E-1,1.139050034E-1,-7.687875286E-2,-2.751114964E-3,1.374491218E-1
3.507258333E-1,7.411814530E-2,-6.104054600E-2,1.007826090E-2,9.654542486E-2
3.607128332E-1,5.454493809E-2,-5.092106223E-2,3.808817804E-2,8.377836329E-2
3.707008329E-1,7.360359946E-2,-3.218117461E-2,7.416023612E-2,1.093291291E-1
3.806878333E-1,1.315704652E-1,-4.545947045E-2,4.800037801E-2,1.472460086E-1
3.906748332E-1,1.640854793E-1,-6.666439801E-2,4.445521116E-2,1.826046338E-1
4.006618331E-1,1.393602812E-1,-5.251325905E-2,4.687245011E-2,1.561280146E-1
4.106498333E-1,1.033571837E-1,-6.243159860E-2,4.716188729E-2,1.296327719E-1
4.206368332E-1,7.286649398E-2,-6.647538677E-2,3.993180513E-2,1.064098306E-1
4.306238331E-1,6.358410308E-2,-6.631926611E-2,1.500746369E-2,9.309353999E-2
4.406118332E-1,1.497647711E-1,-3.551628023E-2,-1.927639890E-1,2.466755931E-1
4.505988332E-1,1.547008809E-1,-1.955966726E-2,-2.808189636E-1,3.212074617E-1
4.605858331E-1,4.150140795E-2,-2.463621989E-2,-1.072367656E-1,1.175969136E-1
4.705728330E-1,-1.072183834E-2,-2.413394406E-2,1.207683921E-1,1.236220433E-1
4.805608331E-1,6.600262111E-2,-3.312564611E-2,2.493679601E-1,2.600731319E-1
4.905478330E-1,2.357224774E-1,-8.741982087E-2,1.885276812E-1,3.142451241E-1
5.005348329E-1,2.864558257E-1,-9.505423799E-2,-6.028654754E-2,3.077770558E-1
5.105218333E-1,1.271189251E-1,-7.825738013E-2,-1.395291835E-1,2.043326496E-1
5.205098330E-1,6.529026579E-2,-2.955840603E-2,-2.800406992E-2,7.694638462E-2
5.304968329E-1,1.116884702E-1,-3.001171142E-2,7.066944838E-3,1.158661249E-1
5.404838333E-1,1.060728225E-1,-5.297679707E-2,5.214663863E-2,1.295270498E-1
5.504708332E-1,1.436536358E-1,-6.155612424E-2,1.079787773E-1,1.899603639E-1
5.604588334E-1,1.696096728E-1,-3.440633252E-2,9.063418150E-2,1.953606708E-1
5.704458333E-1,1.653740411E-1,-2.855473146E-2,4.183215022E-2,1.729562805E-1
5.804328332E-1,1.653867406E-1,-3.909316823E-2,2.256265104E-2,1.714354776E-1
5.904208333E-1,1.969632948E-1,-9.963363111E-3,-8.596576452E-3,1.974024043E-1
6.004078332E-1,1.606889048E-1,-3.266093865E-2,1.110386252E-3,1.639783339E-1
6.103948331E-1,1.466399002E-1,-4.510074377E-2,2.390926480E-2,1.552707003E-1
6.203818331E-1,1.292675941E-1,-5.747008994E-2,4.184910715E-2,1.475271836E-1
6.303698332E-1,1.420303300E-1,-6.942223728E-2,3.028740764E-2,1.609639361E-1
6.403568331E-1,1.626120175E-1,-6.820557788E-2,2.058980048E-2,1.775348106E-1
6.503438330E-1,1.659530069E-1,-7.458562106E-2,1.812578380E-2,1.828440849E-1
6.603318332E-1,1.644970319E-1,-7.334878877E-2,-1.709141135E-2,1.809183093E-1
6.703188331E-1,1.339265916E-1,-8.484646127E-2,-7.069283724E-3,1.586985466E-1
6.803058330E-1,1.412624992E-1,-9.115692258E-2,-2.888699949E-2,1.705846915E-1
6.902928329E-1,1.155589615E-1,-8.532403260E-2,1.443911433E-2,1.443694987E-1
7.002808331E-1,9.961182282E-2,-6.868110269E-2,5.775879622E-2,1.340734413E-1
7.102678330E-1,7.621515783E-2,-3.561305165E-2,7.815446913E-2,1.148266553E-1
7.202548333E-1,7.502096454E-2,-3.412171930E-2,-5.485273004E-3,8.259857788E-2
7.302418333E-1,1.029139648E-1,-4.862909988E-2,-2.437587261E-2,1.164055697E-1
7.402298329E-1,6.501302554E-2,-5.494073063E-2,-6.630742550E-4,8.512119031E-2
7.502168333E-1,4.127875694E-2,-4.749283969E-2,3.541307688E-2,7.220520487E-2
7.602038332E-1,6.654043704E-2,-5.296071723E-2,7.144303501E-2,1.110701336E-1
7.701918329E-1,1.000217126E-1,-6.731095389E-2,8.518925428E-2,1.476222089E-1
7.801788333E-1,7.728971162E-2,-5.350626245E-2,8.465481877E-2,1.265031936E-1
7.901658332E-1,6.458878264E-2,-4.970557228E-2,7.240724087E-2,1.090190960E-1
8.001528331E-1,6.867924803E-2,-5.404786080E-2,2.591661394E-2,9.115745304E-2
8.101408333E-1,7.275202559E-2,-5.836369067E-2,1.803515196E-2,9.499707534E-2
8.201278332E-1,6.367672663E-2,-5.767971262E-2,-4.225782752E-3,8.602053245E-2
8.301148331E-1,6.346605328E-2,-6.423634171E-2,-3.029442430E-3,9.035167424E-2
8.401028332E-1,7.295534424E-2,-5.341782331E-2,2.029451609E-2,9.267045637E-2
8.500898331E-1,1.118879059E-1,-4.176783085E-2,4.597314835E-2,1.279725969E-1
8.600768331E-1,6.857596245E-2,-4.121629223E-2,3.921552122E-2,8.910276357E-2
8.700638330E-1,7.264076404E-2,-6.258114114E-2,7.957475781E-3,9.621019306E-2
8.800518331E-1,9.999963940E-2,-5.671945363E-2,1.693061292E-2,1.162052923E-1
8.900388330E-1,9.206626511E-2,-5.267741963E-2,5.314300418E-2,1.186393131E-1
9.000258329E-1,7.417205846E-2,-5.725973636E-2,2.027112722E-2,9.587017400E-2
9.100138331E-1,7.273353377E-2,-5.837772399E-2,1.604008198E-2,9.463302713E-2
9.200008330E-1,6.981224656E-2,-8.748721004E-2,3.100427628E-2,1.161422698E-1
9.299878329E-1,4.567409067E-2,-9.988535374E-2,6.346392453E-2,1.268498174E-1
9.399748333E-1,3.840116853E-2,-7.239525408E-2,6.986954927E-2,1.076915803E-1
9.499628330E-1,1.490726617E-2,-7.351017192E-2,6.808322489E-2,1.012980625E-1
9.599498333E-1,4.987522376E-2,-7.036013067E-2,5.738925219E-2,1.035934950E-1
9.699368333E-1,5.416630346E-2,-5.490944803E-2,5.620928407E-2,9.543856416E-2
9.799248329E-1,4.793850716E-2,-5.504978120E-2,1.997525811E-2,7.568084180E-2
9.899118333E-1,5.492240326E-2,-6.011873245E-2,-4.710516930E-3,8.156544208E-2
9.998988332E-1,2.008429041E-2,-5.692322910E-2,-5.371837020E-3,6.060106736E-2
1.009885833E0,1.692935212E-2,-6.757130116E-2,-1.880873859E-2,7.215436474E-2
1.019873833E0,3.335177804E-2,-5.599746868E-2,1.791703820E-2,6.759495436E-2
1.029860833E0,3.848303868E-2,-5.599586070E-2,6.010996163E-2,9.071762876E-2
1.039847833E0,1.909755450E-2,-3.271122470E-2,9.471553802E-2,1.020086955E-1
1.049835833E0,-3.780517280E-3,-4.564555809E-2,9.517220557E-2,1.056198750E-1
1.059822833E0,1.473028740E-2,-5.522475913E-2,1.061942071E-1,1.205983624E-1
1.069809833E0,1.161640752E-2,-4.528361544E-2,6.999818802E-2,8.417418296E-2
1.079796833E0,5.508287279E-3,-3.743811384E-2,2.925303519E-2,4.782984073E-2
1.089784833E0,-1.153820101E-4,-4.475970492E-2,-2.745852470E-3,4.484399852E-2
1.099771833E0,8.866854860E-3,-3.541190743E-2,-1.383509696E-2,3.903888076E-2
1.109758833E0,4.098873504E-2,-1.597693205E-2,-3.616561353E-2,5.694989342E-2
1.119746833E0,6.865234170E-2,-3.347808704E-2,6.816684008E-3,7.668372392E-2
1.129733833E0,5.356901952E-2,-3.879876092E-2,6.639454901E-2,9.371883397E-2
1.139720833E0,3.348099237E-2,-4.197730735E-2,5.420135021E-2,7.629454468E-2
1.149707833E0,2.235131074E-2,-7.450229824E-2,4.174093366E-2,8.827501955E-2
1.159695833E0,3.658829413E-2,-5.626936421E-2,3.828172088E-2,7.726858850E-2
1.169682833E0,9.595281799E-2,-4.654880673E-2,2.101489305E-2,1.086984840E-1
1.179669833E0,1.124412078E-1,-3.414291546E-2,-3.992478848E-3,1.175785005E-1
1.189657833E0,1.131331436E-1,-8.228201866E-3,-2.191244066E-2,1.155290723E-1
1.199644833E0,8.563657542E-2,-3.699343309E-2,5.219400108E-2,1.068941106E-1
1.209631833E0,1.055844064E-1,-4.400687590E-2,1.031407911E-1,1.540217348E-1
1.219619833E0,1.224270918E-1,-3.140276402E-2,1.018315995E-1,1.623089679E-1
1.229606833E0,1.467239905E-1,-4.481759235E-2,5.856688142E-2,1.642151807E-1
1.239593833E0,1.240909445E-1,-5.896990076E-2,-2.723165274E-2,1.400627524E-1
1.249580833E0,7.793046596E-2,-1.559583977E-2,-5.342250109E-2,9.576195155E-2
1.259568833E0,6.286705172E-2,-7.389418781E-4,-2.946587384E-2,6.943378103E-2
1.269555833E0,4.711324576E-2,-1.983229369E-3,2.267257869E-2,5.232243257E-2
1.279542833E0,5.828833468E-2,-1.327201009E-2,9.001262248E-2,1.080553026E-1
1.289530833E0,6.890069305E-2,-2.118797064E-2,1.251690066E-1,1.444420846E-1
1.299517833E0,5.937894090E-2,-3.056471184E-2,1.132588130E-1,1.314823903E-1
1.309504833E0,-6.138461810E-3,-3.743168190E-2,1.181774908E-1,1.241157962E-1
1.319492416E0,-2.057209438E-2,-1.302876592E-2,8.517463624E-2,8.858712360E-2
1.329480417E0,-2.425715586E-2,5.639785677E-3,4.060072660E-2,4.763019834E-2
1.339467417E0,-2.932478235E-2,-6.396853924E-3,4.816526949E-2,5.675170293E-2
1.349454416E0,-1.208228443E-2,-9.825953543E-3,7.150852382E-2,7.318469744E-2
1.359442417E0,-2.274213315E-2,-2.718472883E-2,8.994304061E-2,9.667452951E-2
1.369429416E0,-3.945271717E-3,-3.905399188E-2,1.004920024E-1,1.078861529E-1
1.379416416E0,1.821343722E-3,-3.724252447E-2,9.176561773E-2,9.905176182E-2
1.389404417E0,2.712477660E-3,-1.769206658E-2,9.097799778E-2,9.272196522E-2
1.399391416E0,1.635434241E-2,4.253557026E-3,8.118917406E-2,8.292912183E-2
1.409378416E0,-3.839619840E-3,7.639241070E-3,4.674439609E-2,4.751988269E-2
1.419365416E0,1.681532227E-2,-6.228161752E-3,5.160167813E-3,1.865937817E-2
1.429353416E0,3.291874604E-2,-4.498701543E-3,-1.436368525E-2,3.619665193E-2
1.439340416E0,1.240747184E-2,-7.416608334E-3,-5.986788690E-2,6.158827257E-2
1.449327416E0,8.353615506E-3,-2.166320309E-2,-6.619048119E-2,7.014454405E-2
1.459315416E0,-5.688902289E-3,-4.014873683E-2,-5.194432497E-2,6.589762951E-2
1.469302416E0,-1.475137392E-2,-4.920154229E-2,2.899049520E-3,5.144705321E-2
1.479289417E0,-2.938847132E-3,-3.632188037E-2,6.916846812E-2,7.818051418E-2
1.489277416E0,-1.729617354E-2,-3.220514819E-2,6.740845621E-2,7.668265226E-2
1.499264416E0,7.754111448E-3,-5.724277943E-2,8.562838018E-2,1.032912462E-1
1.509251417E0,1.459560044E-2,-6.532918632E-2,9.043420672E-2,1.125134653E-1
1.519238417E0,4.141939161E-3,-6.618682668E-2,4.946218193E-2,8.273064200E-2
1.529226416E0,6.100308727E-3,-5.392316893E-2,6.332826912E-2,8.339899031E-2
1.539213417E0,3.004750734E-2,-5.176101476E-2,5.849028289E-2,8.368493616E-2
1.549200417E0,5.403030088E-2,-3.554639339E-2,7.231894791E-2,9.701984191E-2
1.559188416E0,5.684957245E-2,-2.943736866E-2,7.072792053E-2,9.539848691E-2
1.569175417E0,6.518826842E-2,-1.264109552E-2,3.021490216E-2,7.295373841E-2
1.579162417E0,5.702232113E-2,-3.797956601E-2,3.395010352E-2,7.646307652E-2
1.589150417E0,4.736193515E-2,-4.343341023E-2,6.456027746E-2,9.109140163E-2
1.599137417E0,6.288841233E-2,-3.453526363E-2,1.044634312E-1,1.267290231E-1
1.609124416E0,8.877383502E-2,-5.562427014E-2,7.692129135E-2,1.299682203E-1
1.619111416E0,9.717376230E-2,-8.122133374E-2,3.916991293E-2,1.325666897E-1
1.629099417E0,1.034810625E-1,-5.490491644E-2,4.726421356E-2,1.263201727E-1
1.639086416E0,9.662308250E-2,-2.667265892E-2,4.781794488E-2,1.110585731E-1
1.649073416E0,7.198284265E-2,1.898590922E-3,1.469990015E-2,7.349300203E-2
1.659061417E0,9.353721444E-2,1.379986748E-2,4.157077968E-2,1.032849290E-1
1.669048416E0,9.570136031E-2,-6.814491302E-3,7.387372255E-2,1.210888704E-1
1.679035416E0,1.261741064E-1,-2.610284775E-2,9.324671745E-2,1.590478359E-1
1.689023416E0,1.379770584E-1,5.496821254E-3,6.917022228E-2,1.544422330E-1
1.699010416E0,1.062397788E-1,-2.211840883E-2,-2.220187783E-3,1.085405171E-1
1.708997416E0,5.677089086E-2,-3.604983866E-2,-5.072459579E-3,6.744075001E-2
1.718985416E0,4.499196729E-2,-8.315179199E-3,4.222566783E-2,6.226095365E-2
1.728972416E0,7.889934959E-2,2.600256801E-3,4.818807364E-2,9.248761615E-2
1.738959416E0,8.744428782E-2,-3.514761329E-3,7.100975633E-2,1.126997893E-1
1.748946417E0,9.010491712E-2,-1.595120430E-3,1.278569716E-1,1.564252080E-1
1.758934416E0,1.127886603E-1,-7.309458107E-3,1.424288177E-1,1.818259558E-1
1.768921416E0,1.271525283E-1,-1.461394608E-2,1.291094452E-1,1.817981895E-1
1.778908417E0,1.227637362E-1,-3.530665755E-2,1.215940189E-1,1.763592936E-1
1.788896416E0,1.298440200E-1,-5.803990111E-2,7.048993886E-2,1.587354123E-1
1.798883417E0,1.205039335E-1,-6.897492528E-2,4.588310122E-2,1.462326820E-1
1.808870417E0,1.045093319E-1,-6.671541497E-2,4.446047366E-2,1.317189461E-1
1.818858416E0,8.997931162E-2,-3.963432804E-2,4.526621997E-2,1.082413375E-1
1.828845417E0,5.869416799E-2,-5.485506892E-2,4.194617093E-2,9.062872171E-2
1.838832417E0,7.625765065E-2,-6.568835154E-2,7.515660167E-2,1.256133097E-1
1.848820416E0,1.146823177E-1,-2.373764902E-2,7.388073921E-2,1.384697570E-1
1.858807417E0,1.319366105E-1,-5.030081883E-2,5.711560249E-2,1.523142594E-1
1.868794417E0,1.332747824E-1,-6.625787035E-2,1.169852436E-2,1.492954402E-1
1.878781416E0,1.477753473E-1,-6.613975659E-2,-1.483321667E-2,1.625793498E-1
1.888769417E0,1.106502788E-1,-6.523183018E-2,7.424209714E-3,1.286615512E-1
1.898756417E0,8.372774273E-2,-7.564323619E-2,7.732357979E-3,1.131018278E-1
1.908743416E0,6.965641826E-2,-6.241434932E-2,-1.502500534E-2,9.472760100E-2
1.918731417E0,6.585921815E-2,-4.598089591E-2,-2.940681696E-2,8.553619285E-2
1.928718416E0,5.968196372E-2,-3.796538651E-2,-1.692242682E-2,7.273015809E-2
1.938705416E0,9.070166202E-2,-2.422384501E-2,-2.467408061E-2,9.706902912E-2
1.948693417E0,1.017640002E-1,-3.272715837E-2,-2.309182405E-2,1.093627494E-1
1.958680416E0,7.646486135E-2,-5.218508407E-2,1.169618547E-2,9.331108603E-2
1.968667416E0,8.008318235E-2,-4.263789654E-2,4.642981589E-2,1.019168000E-1
1.978655417E0,9.153291682E-2,-5.076874226E-2,-8.042260408E-3,1.049781787E-1
1.988642416E0,8.782810271E-2,-7.170776770E-2,-3.627086341E-2,1.190435009E-1
1.998629416E0,7.548776421E-2,-5.916037381E-2,-2.272871196E-2,9.856442929E-2
2.008617416E0,6.207733043E-2,-4.418258473E-2,1.299368262E-2,7.729509386E-2
2.018604416E0,5.051480865E-2,-4.471000358E-2,6.642203093E-2,9.467109647E-2
2.028591416E0,5.276635213E-2,-4.619300365E-2,1.146907961E-1,1.344323630E-1
2.038578417E0,6.249566216E-2,-4.226455182E-2,1.166227162E-1,1.388987331E-1
2.048566416E0,4.860204737E-2,-4.376772478E-2,1.083231783E-1,1.265372818E-1
2.058553416E0,3.826062522E-2,-4.916163504E-2,1.005510592E-1,1.182846453E-1
2.068540417E0,2.179836513E-2,-4.694334760E-2,9.936816752E-2,1.120396328E-1
2.078528416E0,5.135719143E-3,-3.722702935E-2,6.362589240E-2,7.389507094E-2
2.088515416E0,1.967174194E-2,-3.993852943E-2,4.338517070E-2,6.216378850E-2
2.098502417E0,2.169205545E-2,-3.087052122E-2,6.314992905E-4,3.773503864E-2
2.108490416E0,4.206445827E-2,-3.884393066E-2,-2.275619388E-2,6.161261201E-2
2.118477417E0,5.238980058E-2,-5.849291414E-2,1.001511097E-2,7.916068883E-2
2.128464417E0,3.098958515E-2,-5.257363155E-2,4.269695342E-2,7.448067503E-2
2.138452416E0,1.136491329E-2,-6.686247244E-2,4.849856079E-2,8.337782603E-2
2.148439417E0,3.835128447E-2,-4.777160570E-2,4.430727661E-2,7.560477559E-2
2.158426417E0,5.963660211E-2,-4.595107511E-2,1.301414788E-2,7.640283804E-2
2.168414416E0,1.715518255E-2,-4.220534876E-2,-2.113593042E-2,5.022269713E-2
2.178401417E0,2.119051966E-2,-2.709965184E-2,1.624882758E-2,3.804541564E-2
2.188388417E0,-4.229638260E-4,-6.930558532E-3,1.942678928E-2,2.063035826E-2
2.198375416E0,-8.856247645E-4,-2.226371214E-2,-6.095137596E-3,2.309995480E-2
2.208363417E0,2.899777682E-2,-1.244842976E-2,-1.017590940E-2,3.315695396E-2
2.218350417E0,5.307046216E-2,-1.594828069E-2,-8.056293726E-3,5.599754887E-2
2.228337416E0,3.986014020E-2,-1.576102361E-2,5.123330355E-3,4.316814978E-2
2.238325417E0,3.976514122E-2,-3.157891139E-2,2.405252159E-2,5.618734640E-2
2.248312416E0,2.106819408E-2,-4.397486240E-2,3.529964089E-2,6.019735851E-2
2.258299416E0,-9.754882464E-3,-5.830097929E-2,3.911436439E-2,7.088085368E-2
2.268287417E0,5.420113094E-3,-3.432052463E-2,2.034363270E-2,4.026337577E-2
2.278274416E0,-1.041622083E-2,-3.103687450E-2,-1.049692154E-2,3.437979926E-2
2.288261416E0,-1.719536388E-2,-4.469421610E-2,-2.182180882E-3,4.793761994E-2
2.298249417E0,1.568653557E-2,-4.216558769E-2,3.560954332E-2,5.737633449E-2
2.308236416E0,6.507512480E-3,-1.664132193E-2,7.957826614E-2,8.155968218E-2
2.318222667E0,1.757463804E-2,-2.573315755E-2,1.011392891E-1,1.058310876E-1
2.328210666E0,3.263624330E-2,-1.623888731E-2,1.131845534E-1,1.189099195E-1
2.338197667E0,3.681086292E-2,-2.955767512E-2,1.242621034E-1,1.329276726E-1
2.348184667E0,3.662825620E-2,-5.029964939E-2,1.278774369E-1,1.422122454E-1
2.358172666E0,4.803765401E-2,-3.504426375E-2,8.102486730E-2,1.005024664E-1
2.368159667E0,6.396800020E-2,-3.291880086E-2,5.467965245E-2,9.036269635E-2
2.378146667E0,1.017750003E-1,-4.632164240E-2,3.208250284E-2,1.163319914E-1
2.388134666E0,9.319558172E-2,-4.239523709E-2,5.507960200E-2,1.162606345E-1
2.398121667E0,9.147596128E-2,-6.717266724E-2,9.288360536E-2,1.466539562E-1
2.408108667E0,6.393965947E-2,-5.614598796E-2,6.961285651E-2,1.099390823E-1
2.418095666E0,4.326277203E-2,-5.897370145E-2,5.268692136E-2,9.014142548E-2
2.428083667E0,2.887195204E-2,-6.783895746E-2,3.462194860E-2,8.145178383E-2
2.438070667E0,2.701564380E-2,-5.078160614E-2,1.356495559E-2,5.909843105E-2
2.448057666E0,1.495282877E-2,-2.243883625E-2,4.472535253E-3,2.733298432E-2
2.458045667E0,2.800055246E-2,-1.332083434E-2,-1.598336399E-2,3.488471714E-2
2.468032666E0,4.905893418E-2,-6.811860055E-3,-7.110214233E-4,4.953469503E-2
2.478019666E0,5.733809819E-2,-2.435569972E-2,3.227604568E-2,7.016124811E-2
2.488007667E0,5.684758988E-2,-5.311961532E-2,1.098744446E-1,1.346318520E-1
2.497994666E0,5.114395078E-2,-6.194554880E-2,1.368944281E-1,1.587231526E-1
2.507981666E0,3.657271679E-2,-7.217408314E-2,1.312746692E-1,1.542066816E-1
2.517969667E0,-7.341700019E-3,-4.621858522E-2,7.031101406E-2,8.446121522E-2
2.527956666E0,-2.732446815E-2,-3.373448744E-2,-1.872746229E-2,4.727959440E-2
2.537943666E0,-2.114242631E-2,-1.453983262E-2,-3.084523201E-2,4.012277733E-2
2.547931666E0,2.253899722E-2,1.976505071E-3,-2.186273932E-3,2.273087684E-2
2.557918666E0,2.285331247E-2,-2.104354441E-2,4.471482754E-2,5.444740999E-2
2.567905666E0,1.347873657E-2,-1.722078100E-2,1.031951702E-1,1.054868465E-1
2.577893666E0,4.580343291E-3,-2.785803571E-2,1.292404228E-1,1.322880818E-1
2.587880666E0,5.236326884E-2,-1.383655876E-2,1.227125913E-1,1.341333006E-1
2.597867666E0,2.523972563E-2,-2.499450803E-2,7.802466094E-2,8.572990667E-2
2.607855666E0,1.872642989E-2,-2.225333333E-2,8.992959201E-2,9.451572113E-2
2.617842666E0,1.025039745E-2,-3.539802030E-2,6.222139120E-2,7.231591811E-2
2.627829666E0,1.362931151E-3,-5.415106416E-2,6.955789268E-2,8.816175908E-2
2.637817666E0,6.222954076E-3,-5.606471166E-2,6.850948691E-2,8.874416515E-2
2.647804666E0,6.213863483E-3,-5.810085833E-2,6.965203285E-2,9.091604654E-2
2.657791667E0,-2.813168541E-3,-5.540806934E-2,4.412893653E-2,7.088956979E-2
2.667779666E0,-8.172735544E-3,-6.171736121E-2,1.618275404E-2,6.432501698E-2
2.677766666E0,3.922001626E-3,-6.434451520E-2,1.985422075E-2,6.745212239E-2
2.687753667E0,2.808491682E-2,-6.637861535E-2,5.306348205E-2,8.950204610E-2
2.697740667E0,1.612728772E-2,-5.025988832E-2,4.787115455E-2,7.125863611E-2
2.707728666E0,6.295642275E-3,-6.759162024E-2,1.664994657E-2,6.989622993E-2
2.717715667E0,2.805497725E-2,-5.532328472E-2,-9.194746614E-3,6.270798151E-2
2.727702667E0,1.526057504E-2,-4.462112591E-2,-1.592021406E-2,4.977331859E-2
2.737690667E0,1.062058101E-2,-4.214380682E-2,-1.970979452E-2,4.772183142E-2
2.747677667E0,1.356947805E-2,-4.991753384E-2,-1.670607984E-2,5.435976475E-2
2.757664667E0,2.906012275E-2,-4.827417389E-2,-2.093244731E-2,6.010868447E-2
2.767652667E0,5.936044908E-2,-4.615134224E-2,7.769780159E-3,7.559086446E-2
2.777639667E0,4.471969717E-2,-3.176865354E-2,1.419996321E-2,5.666337105E-2
2.787626666E0,4.543368788E-2,-2.743908271E-2,4.147430062E-3,5.323837367E-2
2.797614667E0,6.370820110E-2,-2.564252570E-2,3.109139979E-2,7.538533778E-2
2.807601667E0,6.168769573E-2,-3.715423152E-2,3.815015852E-2,8.149382381E-2
2.817588666E0,4.722289933E-2,-5.826428801E-2,6.347444952E-2,9.825342345E-2
2.827576667E0,4.488053215E-2,-5.454326615E-2,6.969237864E-2,9.922831092E-2
2.837563667E0,1.341625359E-2,-5.346182361E-2,4.832957625E-2,7.330696001E-2
2.847550666E0,4.686278393E-3,-7.093944356E-2,1.743171930E-2,7.319993644E-2
2.857538667E0,2.845766768E-3,-5.350801662E-2,2.908054233E-2,6.096625438E-2
2.867525666E0,3.188107540E-2,-3.871704608E-2,2.197559059E-2,5.475709276E-2
2.877512666E0,2.664684894E-2,-6.106832027E-3,4.659821570E-2,5.402537980E-2
2.887500667E0,2.561169078E-2,-3.329843134E-2,4.713849843E-2,6.314097139E-2
2.897487666E0,3.157602433E-2,-3.795076847E-2,9.492369890E-2,1.069944613E-1
2.907474666E0,1.538827275E-2,-3.800485522E-2,9.659366369E-2,1.049357128E-1
2.917462667E0,4.743718151E-3,-4.374155849E-2,7.202073991E-2,8.439676403E-2
2.927449666E0,1.221267734E-2,-3.676583022E-2,4.502414525E-2,5.939738559E-2
2.937436666E0,3.843405912E-2,-5.283880278E-2,1.353221118E-2,6.672508314E-2
2.947424666E0,4.579535645E-2,-1.733450934E-2,-3.781394362E-3,4.911210471E-2
2.957411666E0,3.757875765E-2,-2.128722712E-2,9.386535287E-3,4.419746723E-2
2.967398666E0,4.147299414E-2,-2.011398330E-2,5.650690734E-2,7.292195927E-2
2.977386666E0,3.941774352E-2,-2.044347391E-2,8.437415242E-2,9.534511905E-2
2.987373666E0,3.226331885E-2,-4.517997354E-2,5.871072292E-2,8.080285106E-2
2.997360666E0,7.464060316E-2,-3.619017184E-2,3.022425771E-2,8.828620465E-2
3.007348666E0,7.240667442E-2,-4.172032222E-2,-1.712474048E-2,8.530280490E-2
3.017335666E0,6.162283732E-2,-4.508247122E-2,-3.982129276E-2,8.611352186E-2
3.027322666E0,4.889692976E-2,-4.038467199E-2,-3.322797239E-2,7.159559777E-2
3.037310666E0,1.273992260E-2,-3.885065496E-2,-2.518395782E-2,4.801989952E-2
3.047297666E0,-1.310384782E-2,-4.449424133E-2,5.590522885E-3,4.671939945E-2
3.057284667E0,1.323248656E-2,-3.474444777E-2,5.044275999E-2,6.266376454E-2
3.067272666E0,1.860258769E-2,-1.244521379E-2,6.221963704E-2,6.612278615E-2
3.077259666E0,-3.524902593E-3,-2.065982088E-2,5.735299945E-2,6.106242448E-2
3.087246667E0,1.875943012E-2,-1.878988132E-2,3.209127367E-2,4.165123892E-2
3.097234666E0,2.208541774E-2,-4.028439224E-3,5.460013032E-2,5.903531342E-2
3.107221666E0,2.423588661E-3,-1.054559961E-2,6.965437174E-2,7.048982164E-2
3.117208667E0,6.388613004E-3,-2.017201692E-2,6.559581935E-2,6.892413336E-2
3.127196666E0,2.723331554E-3,-2.183657303E-2,7.481220067E-2,7.798152233E-2
3.137183666E0,-1.339067202E-3,-1.642482877E-2,9.505233765E-2,9.647028036E-2
3.147170667E0,3.143955580E-2,-1.249783874E-2,1.036693794E-1,1.090503639E-1
3.157158666E0,4.743098712E-2,-9.131742865E-3,7.168920279E-2,8.644321294E-2
3.167145667E0,5.706927245E-2,-1.824667498E-2,2.451562107E-2,6.473684177E-2
3.177132667E0,9.912450308E-2,-1.527278110E-2,5.635137141E-2,1.150408711E-1
3.187120666E0,1.116336891E-1,-2.261819959E-2,6.411296546E-2,1.307062961E-1
3.197107667E0,1.031639241E-1,-1.606771007E-2,7.977180898E-2,1.313944750E-1
3.207094667E0,8.165397288E-2,-2.505736560E-2,7.485430062E-2,1.135711635E-1
3.217082666E0,1.060800585E-1,-4.335052595E-2,6.338440239E-2,1.309573571E-1
3.227069667E0,1.312561408E-1,-2.306872755E-2,5.803303063E-2,1.453553347E-1
3.237056667E0,1.157603067E-1,-1.810312584E-2,4.063171685E-2,1.240125324E-1
3.247044667E0,1.004997317E-1,-1.446133375E-2,4.187834322E-2,1.098322442E-1
3.257031667E0,7.100563130E-2,3.264208138E-4,1.321353793E-2,7.222536820E-2
3.267018666E0,6.274289888E-2,7.637633085E-3,1.802111864E-3,6.323173576E-2
3.277006667E0,7.682294849E-2,1.589419395E-3,2.045589924E-2,7.951563043E-2
3.286993667E0,8.020897971E-2,-1.971520320E-2,5.131457984E-2,9.723865368E-2
3.296980666E0,6.476252260E-2,-3.932091728E-2,7.176930964E-2,1.043606855E-1
3.306968667E0,5.305211195E-2,-2.039260313E-2,8.064479828E-2,9.866087540E-2
3.316955333E0,6.563572203E-2,-2.000771016E-3,7.674353600E-2,1.010030762E-1
3.326942333E0,8.843222058E-2,-3.367016807E-2,3.635681748E-2,1.013694038E-1
3.336930333E0,1.048855088E-1,-3.291470781E-2,1.209847391E-2,1.105925903E-1
3.346917333E0,8.943362935E-2,-1.452550694E-2,1.688909769E-2,9.216618703E-2
3.356904333E0,5.520066221E-2,3.423690945E-3,4.446047366E-2,7.096173959E-2
3.366892333E0,6.129743520E-2,-1.716596335E-3,4.534106433E-2,7.626358489E-2
3.376879333E0,8.224744700E-2,-7.822112739E-3,3.809870303E-2,9.097988326E-2
3.386866333E0,7.792957060E-2,-5.520502478E-3,1.523141205E-2,7.959579031E-2
3.396854333E0,5.664012336E-2,-3.923481703E-4,-5.442588329E-3,5.690236620E-2
3.406841333E0,4.664185511E-2,-1.056591868E-3,8.417651653E-3,4.740712915E-2
3.416828333E0,5.441586080E-2,-1.690839350E-2,1.378071785E-2,5.862497643E-2
3.426816333E0,7.916840374E-2,-6.432083398E-3,4.238003433E-2,9.002819090E-2
3.436803333E0,8.929251046E-2,-1.765318260E-2,6.255819082E-2,1.104459801E-1
3.446790333E0,4.559661963E-2,-5.522271261E-2,6.959356070E-2,9.985921790E-2
3.456778333E0,5.546595678E-2,-4.464963108E-2,4.811849177E-2,8.593864769E-2
3.466765333E0,7.365146897E-2,-2.096650735E-2,3.864132464E-2,8.577461910E-2
3.476752333E0,4.974735703E-2,-2.558960840E-2,5.103449821E-3,5.617537529E-2
3.486740333E0,3.905230167E-2,-1.814069420E-2,1.053317428E-2,4.432961552E-2
3.496727333E0,4.346386143E-2,-3.115761951E-2,7.124832273E-3,5.395060462E-2
3.506714333E0,3.714949893E-2,-3.963988289E-2,-7.408422232E-3,5.482964806E-2
3.516702333E0,4.441252192E-2,-2.943269089E-2,-3.739703715E-2,6.509449887E-2
3.526689333E0,4.710478557E-2,-3.018435046E-2,-3.646206737E-2,6.677902510E-2
3.536676333E0,5.782298311E-2,-6.204787508E-2,-4.116439819E-2,9.427589223E-2
3.546664333E0,7.355127145E-2,-4.596730113E-2,-8.724045753E-3,8.717161969E-2
3.556651333E0,7.003432198E-2,-3.388022929E-2,1.452448368E-2,7.914314133E-2
3.566638333E0,6.948799561E-2,-2.959041953E-2,-1.028700650E-2,7.622333609E-2
3.576626333E0,7.366187976E-2,-2.813051596E-2,-6.558763325E-2,1.025628397E-1
3.586613333E0,8.223030735E-2,-1.150395826E-2,-8.207970500E-2,1.167529121E-1
3.596600333E0,7.864715187E-2,-3.879291371E-2,-7.867253244E-2,1.178118500E-1
3.606588333E0,6.102146032E-2,-3.495582461E-2,-2.227262914E-2,7.376718988E-2
3.616575333E0,6.969867810E-2,-6.039735228E-3,3.993940651E-2,8.055768321E-2
3.626562333E0,3.743908228E-2,-2.411113992E-2,7.415965140E-2,8.650251931E-2
3.636550333E0,3.350275498E-2,-1.196764246E-2,6.347035646E-2,7.276087690E-2
3.646537333E0,7.397212480E-2,2.769504458E-2,6.186997354E-2,1.003333662E-1
3.656524333E0,4.134560706E-2,1.225064769E-2,5.096667051E-2,6.676180866E-2
3.666512333E0,-1.037849258E-2,1.976636633E-2,4.805358768E-2,5.298650427E-2
3.676499333E0,-1.517520569E-2,3.473085299E-2,2.474483192E-2,4.526395612E-2
3.686486333E0,1.159138555E-2,2.325452283E-2,-2.637854397E-2,3.702648556E-2
3.696474333E0,8.060685990E-3,2.005638823E-2,-1.252064288E-2,2.497998930E-2
3.706461333E0,1.334573754E-2,1.568486363E-2,4.697594583E-2,5.129194034E-2
3.716448333E0,2.337224829E-2,1.773445889E-2,1.012001002E-1,1.053671358E-1
3.726436333E0,2.305247869E-2,4.620177448E-2,6.573849142E-2,8.359168614E-2
3.736423333E0,3.747705492E-2,3.874233529E-2,9.202932715E-3,5.468264953E-2
3.746410333E0,2.694148466E-2,2.163045868E-2,1.609796941E-2,3.811646570E-2
3.756398333E0,1.479453368E-2,6.259005815E-3,4.315888345E-2,4.605152116E-2
3.766385333E0,1.804827622E-2,-9.823322296E-4,3.293678105E-2,3.757042450E-2
3.776372333E0,2.631871051E-2,7.321737260E-3,2.214574456E-2,3.516697829E-2
3.786360333E0,1.914887295E-2,-5.242028832E-3,-1.617573738E-2,2.560883991E-2
3.796347333E0,9.726331607E-3,1.199921742E-2,-4.811849177E-2,5.053683800E-2
3.806334333E0,-8.809054219E-3,2.961760908E-3,-5.707467198E-2,5.782637500E-2
3.816322333E0,-3.940460098E-2,-2.755149543E-2,-1.630729973E-2,5.077140439E-2
3.826309333E0,-5.473017148E-2,-3.508753315E-2,2.901388407E-3,6.507645279E-2
3.836296333E0,-4.422653935E-2,-3.722659081E-2,6.612908542E-2,8.783428593E-2
3.846284333E0,-1.133740854E-2,-3.468670651E-2,9.735789478E-2,1.039724200E-1
3.856271333E0,-1.376989136E-2,-5.737448797E-2,1.597126025E-1,1.702631997E-1
3.866258333E0,-4.299009992E-3,-5.471663609E-2,1.780792916E-1,1.863454476E-1
3.876246333E0,2.543960448E-2,-8.069888502E-3,1.274938595E-1,1.302573637E-1
3.886233333E0,-1.741177938E-2,-3.665765673E-2,1.365044188E-1,1.424093053E-1
3.896220333E0,4.417059794E-3,-3.539334252E-2,1.024291849E-1,1.084616846E-1
3.906208333E0,9.536234971E-2,2.523234352E-2,7.621377826E-2,1.246562830E-1
3.916195333E0,5.544015594E-2,7.399943769E-3,5.812600136E-2,8.066599093E-2
3.926182333E0,7.171518178E-2,3.626808599E-2,1.015661359E-2,8.100369225E-2
3.936170333E0,8.437314743E-2,2.883715197E-2,2.267433286E-2,9.200290600E-2
3.946157333E0,7.294608006E-2,6.417903900E-3,6.717807591E-2,9.937411117E-2
3.956144333E0,9.672448601E-2,1.217317209E-2,1.089318734E-1,1.461846961E-1
3.966132333E0,8.297421022E-2,1.919947878E-2,9.748244047E-2,1.294456092E-1
3.976119333E0,8.769465828E-2,1.991225436E-2,7.248910189E-2,1.155055014E-1
3.986106333E0,1.188641367E-1,3.972700641E-2,4.161697268E-2,1.320563911E-1
3.996094333E0,1.210959823E-1,5.008330241E-2,6.855275631E-3,1.312233551E-1
4.006081333E0,1.053837830E-1,1.850936115E-2,1.253935397E-2,1.077291677E-1
4.016068333E0,7.824829867E-2,-3.333059102E-3,1.411283970E-2,7.958063692E-2
4.026056333E0,8.166499123E-2,1.588001445E-2,2.960971534E-2,8.830674320E-2
4.036043333E0,7.687972130E-2,1.174252465E-2,1.607750416E-2,7.941577030E-2
4.046030333E0,9.028541336E-2,3.615625799E-3,-1.442157269E-2,9.150142280E-2
4.056018333E0,9.160608924E-2,6.372587979E-3,-4.022533536E-2,1.002514991E-1
4.066005333E0,5.826708371E-2,-1.290612057E-2,-9.452608824E-2,1.117890976E-1
4.075992333E0,1.707349512E-2,-1.920693398E-2,-4.732502460E-2,5.385228409E-2
4.085980333E0,2.875157249E-2,-6.898925096E-2,2.315088093E-2,7.824406020E-2
4.095967333E0,6.128239232E-2,-7.417982429E-2,7.474144936E-2,1.218378521E-1
4.105954333E0,6.596357267E-2,-1.032093497E-1,1.478760839E-1,1.920174444E-1
4.115942333E0,9.133937398E-2,-1.131531246E-1,2.065640026E-1,2.526167018E-1
4.125929333E0,1.061074581E-1,-8.949470535E-2,1.696920455E-1,2.192338597E-1
4.135916333E0,1.044191020E-1,-8.077460647E-2,9.003016412E-2,1.597914778E-1
4.145904333E0,1.150099536E-1,-8.347163469E-2,5.932234168E-2,1.539933227E-1
4.155891333E0,8.627299002E-2,-7.528012410E-2,5.506556869E-2,1.270525196E-1
4.165878333E0,4.977128950E-2,-5.081712797E-2,3.604866922E-2,7.974376657E-2
4.175866333E0,4.251311330E-2,-3.550531670E-2,6.536017656E-3,5.577375587E-2
4.185853333E0,3.772184084E-2,-1.924713358E-2,-9.537393451E-3,4.340911542E-2
4.195840333E0,2.815067058E-2,1.105416119E-3,-3.689593077E-2,4.642189038E-2
4.205828333E0,2.941254540E-2,-9.500263631E-4,-5.006912291E-2,5.807682366E-2
4.215815333E0,2.464242342E-2,-2.592202261E-2,-4.660698652E-2,5.874871472E-2
4.225803333E0,2.643499701E-2,-5.968691558E-2,1.826728642E-2,6.778665585E-2
4.235790333E0,4.043903282E-2,-5.812527046E-2,4.983231068E-2,8.658592050E-2
4.245777333E0,4.246189535E-2,-3.619601905E-2,7.056829154E-2,8.996137017E-2
4.255765333E0,3.165569264E-2,-4.377664179E-2,4.757587016E-2,7.198569763E-2
4.265752333E0,4.117011750E-2,-1.713380367E-2,3.417229772E-2,5.618088406E-2
4.275739333E0,5.717349906E-2,-1.248541340E-2,1.652481616E-2,6.080924348E-2
4.285727333E0,4.775973768E-2,-2.564603403E-2,2.155692995E-2,5.833877641E-2
4.295714333E0,6.557203763E-2,-7.317790389E-3,4.447158337E-2,7.956735450E-2
4.305701333E0,4.658924388E-2,-2.536492914E-2,5.132744372E-2,7.381357432E-2
4.315689333E0,3.778265188E-2,-3.164878562E-2,8.147919595E-2,9.522622426E-2
4.325676583E0,3.999585955E-2,-3.591374472E-2,7.725282848E-2,9.411410813E-2
4.335663583E0,4.167794818E-2,-3.903352663E-2,4.826818049E-2,7.476954469E-2
4.345651583E0,2.567283073E-2,-4.518026590E-2,5.341548443E-2,7.452224259E-2
4.355638583E0,8.780462248E-3,-5.460203066E-2,8.691535234E-2,1.030182350E-1
4.365625583E0,2.422076608E-2,-3.364429414E-2,1.107456797E-1,1.182505375E-1
4.375613583E0,6.930075224E-2,-2.449924886E-2,9.920912325E-2,1.234716874E-1
4.385600583E0,6.137131568E-2,-4.912289724E-2,1.080384189E-1,1.336106185E-1
4.395587583E0,5.183207670E-2,-5.106695026E-2,1.264337593E-1,1.458762938E-1
4.405575583E0,4.418425667E-2,-5.757738635E-2,1.217998409E-1,1.417836563E-1
4.415562583E0,5.345852542E-2,-5.975839779E-2,1.264881384E-1,1.497602391E-1
4.425549583E0,3.519322157E-2,-6.378669083E-2,1.280294645E-1,1.473052903E-1
4.435537583E0,3.409719754E-2,-4.278831616E-2,7.568460524E-2,9.338960515E-2
4.445524583E0,3.164292013E-2,-5.204021931E-2,4.119948149E-2,7.353132730E-2
4.455511583E0,4.010566844E-2,-2.700054154E-2,2.518746614E-2,5.451515693E-2
4.465499583E0,5.723611909E-2,-3.547344938E-2,2.732637763E-2,7.267096981E-2
4.475486583E0,6.388229281E-2,-2.681167647E-2,4.552057385E-3,6.943006954E-2
4.485473583E0,6.561484108E-2,-2.872927085E-2,1.288317025E-2,7.277811792E-2
4.495461583E0,4.763034062E-2,-3.317563981E-2,4.129771471E-2,7.123744567E-2
4.505448583E0,3.415146701E-2,-3.849689841E-2,3.877581060E-2,6.443521843E-2
4.515435583E0,3.463968211E-2,-8.186116531E-2,3.181820869E-2,9.441163259E-2
4.525423583E0,4.970369020E-2,-7.992076680E-2,1.075127542E-2,9.472790354E-2
4.535410583E0,5.930325600E-2,-7.547732145E-2,2.025358558E-2,9.810152881E-2
4.545398583E0,-2.563245753E-3,-5.537897944E-2,-1.841054320E-2,5.841532071E-2
4.555385583E0,-6.679758662E-3,-6.457343370E-2,-4.922595441E-2,8.147111208E-2
4.565372583E0,2.308172847E-2,-5.944981098E-2,-4.468149841E-2,7.786836659E-2
4.575360583E0,1.223895326E-3,-5.786726207E-2,-4.875817716E-2,7.568010160E-2
4.585347583E0,5.131160142E-3,-6.063796520E-2,-1.095768213E-3,6.086454088E-2
4.595334583E0,2.245994104E-2,-3.519979969E-2,2.526991189E-2,4.880618092E-2
4.605322583E0,2.171957390E-2,-4.147269264E-2,1.268494964E-2,4.850393873E-2
4.615309583E0,3.550378181E-2,-4.431736305E-2,1.414616883E-2,5.852060563E-2
4.625296583E0,4.447999788E-2,-5.258430272E-2,6.251726031E-2,9.301605744E-2
4.635284583E0,2.427985950E-2,-5.745108649E-2,8.894082785E-2,1.086306116E-1
4.645271583E0,3.161351047E-2,-5.755355895E-2,7.575418711E-2,1.002522970E-1
4.655258583E0,6.497351116E-2,-8.157348230E-2,4.460139155E-2,1.134243109E-1
4.665246583E0,7.767953818E-2,-8.294816270E-2,7.636697531E-2,1.369175784E-1
4.675233583E0,6.990214750E-2,-6.122210205E-2,7.751887679E-2,1.210108766E-1
4.685220583E0,4.252412251E-2,-4.996591955E-2,7.136526704E-2,9.694274316E-2
4.695208583E0,7.862275802E-3,-3.196014985E-2,1.163309401E-1,1.208972878E-1
4.705195583E0,-4.404673747E-2,-1.232625219E-1,8.026472926E-2,1.535454042E-1
4.715182583E0,4.434172036E-2,-1.334444247E-1,4.124041200E-2,1.465413738E-1
4.725170583E0,1.510929752E-1,-3.350995436E-2,4.873244941E-2,1.622555263E-1
4.735157583E0,8.023859038E-2,-4.959418282E-2,3.636968136E-4,9.432892786E-2
4.745144583E0,3.810423961E-2,-4.054532424E-2,-1.874909699E-2,5.871443631E-2
4.755132583E0,-7.429709751E-4,-2.335977271E-2,-4.007506192E-2,4.639225770E-2
4.765119583E0,2.598664348E-2,-1.805780992E-2,-3.066046000E-2,4.406193307E-2
4.775106583E0,7.800552045E-2,-2.563740939E-2,-1.940281570E-2,8.437183913E-2
4.785094583E0,6.676941035E-2,-4.437422723E-2,1.544249654E-2,8.164371929E-2
4.795081583E0,5.822630852E-2,-2.951396719E-2,6.391591430E-3,6.559138437E-2
4.805068583E0,4.653733157E-2,-3.844310403E-2,4.601349413E-2,7.590017865E-2
4.815056583E0,4.393202241E-2,-4.973130003E-2,9.583586454E-2,1.165664520E-1
4.825043583E0,3.974450237E-2,-2.302648142E-2,9.062774956E-2,1.016033135E-1
4.835030583E0,5.128427482E-2,-4.051594198E-2,8.562487185E-2,1.077183229E-1
4.845018583E0,4.307580731E-2,-5.547604322E-2,1.059772754E-1,1.271388982E-1
4.855005583E0,5.850825395E-2,-5.204782069E-2,8.954075217E-2,1.189526701E-1
4.864992583E0,5.902123748E-2,-7.286873236E-2,9.273917913E-2,1.318859886E-1
4.874980583E0,5.493967082E-2,-7.300117180E-2,6.694126368E-2,1.132637245E-1
4.884967583E0,4.098751078E-2,-5.488401264E-2,5.207120955E-2,8.604441730E-2
4.894955583E0,3.675895974E-2,-3.093060136E-2,7.836438417E-3,4.867579469E-2
4.904942583E0,3.646783235E-2,-3.271575630E-2,6.033157110E-3,4.936215647E-2
4.914929583E0,5.101960609E-2,-4.573984444E-3,-7.644065022E-3,5.179144011E-2
4.924917583E0,4.018255019E-2,-2.063321605E-2,-6.393345594E-3,4.562062924E-2
4.934904583E0,4.803243720E-2,-3.626589328E-2,2.211300015E-2,6.411953536E-2
4.944891583E0,5.059827765E-2,-2.336825117E-2,5.856746614E-2,8.084806092E-2
4.954879583E0,2.444569202E-2,-3.610070944E-2,6.092564821E-2,7.491854037E-2
4.964866583E0,4.604366211E-2,-4.588704810E-2,7.347084939E-2,9.809997816E-2
4.974853583E0,3.316972864E-2,-7.201138437E-2,8.813975930E-2,1.185516240E-1
4.984841583E0,5.061073953E-2,-7.428551272E-2,8.845492423E-2,1.261112920E-1
4.994828583E0,4.749538871E-2,-5.462585807E-2,1.257765323E-1,1.451190284E-1
5.004815583E0,-2.852582429E-3,-8.241972059E-2,1.195872545E-1,1.452661661E-1
5.014803583E0,2.781590835E-2,-5.926825494E-2,1.224237388E-1,1.388309138E-1
5.024790583E0,3.879170772E-2,-5.510693774E-2,1.106456923E-1,1.295532339E-1
5.034777583E0,1.157770626E-2,-3.014619738E-2,1.272412598E-1,1.312751869E-1
5.044765583E0,-3.528512335E-2,-2.470477849E-2,1.273400778E-1,1.344279041E-1
5.054752583E0,-6.833207874E-2,-1.499942377E-2,1.127097595E-1,1.326564947E-1
5.064739583E0,-4.878045140E-2,-1.077510282E-2,6.141681433E-2,7.916855665E-2
5.074727583E0,-3.403486074E-2,-1.886574894E-2,-7.889648080E-3,3.970560131E-2
5.084714583E0,-3.763631618E-2,5.478548706E-3,-4.194558620E-2,5.662101194E-2
5.094701583E0,-5.126249394E-2,3.270245388E-2,-6.241668820E-2,8.713860649E-2
5.104689583E0,-4.911008818E-2,3.867582321E-2,-5.836339831E-2,8.552137934E-2
5.114676583E0,-3.795320786E-2,1.062877625E-2,-3.561480582E-2,5.312091174E-2
5.124663583E0,-3.126444083E-2,8.551845253E-3,-1.859589994E-2,3.736852702E-2
5.134651583E0,-3.343708344E-2,1.479915664E-2,-1.210315168E-2,3.851674787E-2
5.144638583E0,-3.739038594E-3,-1.185508355E-2,-3.724091649E-3,1.297660488E-2
5.154625583E0,1.766691442E-2,-1.693792194E-2,-3.128260374E-4,2.447674253E-2
5.164613583E0,1.506816510E-2,-1.599827439E-2,2.240711510E-2,3.138587565E-2
5.174600583E0,1.508267807E-2,-2.611424983E-2,1.010223448E-2,3.180403061E-2
5.184587583E0,-3.548688884E-3,-2.384392217E-2,1.375265121E-3,2.414574851E-2
5.194575583E0,-1.266891091E-2,-4.231381461E-2,-1.308080614E-2,4.606590604E-2
5.204562583E0,-1.905861570E-2,-3.579490006E-2,-1.876488447E-2,4.468362778E-2
5.214549583E0,4.849443119E-4,-2.825550020E-2,6.983329654E-3,2.910971239E-2
5.224537583E0,2.063146646E-2,-2.481865302E-2,2.483370960E-2,4.072267278E-2
5.234524583E0,2.518779962E-2,-3.785180435E-2,3.879744530E-2,5.976977584E-2
5.244511583E0,3.028813854E-2,-4.759311944E-2,6.479708970E-2,8.591355648E-2
5.254499583E0,2.680762910E-2,-5.472379893E-2,8.665222764E-2,1.059337137E-1
5.264486583E0,2.285541382E-2,-6.564552069E-2,7.122201025E-2,9.952024453E-2
5.274473583E0,2.448960552E-2,-4.305801898E-2,2.146337450E-2,5.398527783E-2
5.284461583E0,1.491536091E-2,-4.930518419E-3,2.963368893E-3,1.598623027E-2
5.294448583E0,-4.565862296E-3,3.247309685E-2,-6.424686670E-2,7.213188614E-2
5.304435583E0,1.346430582E-2,3.845640644E-2,-9.968216300E-2,1.076880511E-1
5.314423583E0,1.164002022E-2,1.145162567E-2,-1.175769818E-1,1.187054188E-1
5.324411458E0,5.070554665E-3,3.723214567E-4,-1.064023679E-1,1.065237676E-1
5.334398458E0,-4.278846234E-3,-9.612383991E-3,-7.094543695E-2,7.172141574E-2
5.344386458E0,9.521793262E-3,1.894936413E-3,-3.957512498E-2,4.074856866E-2
5.354373458E0,1.598314015E-2,4.999223202E-3,-3.238772750E-3,1.705704108E-2
5.364360458E0,3.122118514E-2,9.143437296E-3,6.069702208E-2,6.886576316E-2
5.374348458E0,5.357162336E-2,1.529704705E-2,1.128530163E-1,1.258559564E-1
5.384335458E0,4.804013908E-2,8.237995952E-3,1.290258300E-1,1.379252854E-1
5.394322458E0,3.097413114E-2,2.006223544E-2,9.900096238E-2,1.056554809E-1
5.404310458E0,2.636667138E-2,9.005881548E-3,7.152138770E-2,7.675686393E-2
5.414297458E0,-1.248704880E-3,-5.955389142E-4,6.602383554E-2,6.603832819E-2
5.424284458E0,-1.156711732E-3,1.277528912E-2,4.990481615E-2,5.152704794E-2
5.434272458E0,-2.689376590E-3,4.151523113E-3,3.812267661E-2,3.844224711E-2
5.444259458E0,3.259459559E-2,-4.502356052E-5,7.098636746E-2,7.811193286E-2
5.454246458E0,5.111589328E-2,-2.600695342E-3,1.256636810E-1,1.356869887E-1
5.464234458E0,1.312318475E-2,4.472535253E-3,1.180482674E-1,1.188596440E-1
5.474221458E0,1.182947458E-2,7.528582513E-3,1.341637784E-1,1.348945346E-1
5.484208458E0,1.978499063E-2,-3.484940529E-4,9.415011227E-2,9.620712522E-2
5.494196458E0,1.774803083E-2,-6.978359520E-3,2.982255399E-2,3.539879696E-2
5.504183458E0,3.438800516E-2,-4.107668996E-4,-9.793501496E-3,3.575774461E-2
5.514170458E0,1.533805978E-2,2.499392331E-2,-3.310050309E-2,4.422211647E-2
5.524158458E0,3.479595808E-4,1.511592954E-2,-2.820872247E-2,3.200538119E-2
5.534145458E0,1.882651321E-2,1.420551807E-2,-3.259822726E-3,2.380883843E-2
5.544132458E0,3.155252583E-2,8.200866133E-3,1.922330618E-2,3.784642113E-2
5.554120458E0,2.840432554E-2,4.086911380E-3,3.822968066E-2,4.780185182E-2
5.564107458E0,2.761785219E-2,-1.727325976E-2,5.258634925E-2,6.185818773E-2
5.574094458E0,2.122421424E-2,-2.164756179E-2,5.930889308E-2,6.660802504E-2
5.584082458E0,2.700316365E-2,-1.495308459E-2,4.720106363E-2,5.639774813E-2
5.594069458E0,3.754114817E-2,-1.868799359E-2,2.063540876E-2,4.673755455E-2
5.604056458E0,3.430115573E-2,-1.745481580E-2,8.951502442E-3,3.951416550E-2
5.614044458E0,3.205481993E-2,-1.963480398E-2,-8.208906054E-3,3.847626732E-2
5.624031458E0,3.065015428E-2,-3.667373657E-3,-1.096235991E-2,3.275751702E-2
5.634018458E0,2.858797836E-2,1.145337984E-2,-1.425434232E-2,3.393580250E-2
5.644006458E0,2.074841534E-2,3.749541655E-2,9.019330144E-3,4.379213762E-2
5.653993458E0,4.387149459E-2,5.000875041E-2,4.921893775E-2,8.275316905E-2
5.663980458E0,3.650353692E-2,3.443337590E-2,6.599109113E-2,8.290349626E-2
5.673968458E0,4.538828974E-2,1.670096353E-2,9.168726504E-2,1.036608586E-1
5.683955458E0,4.735283086E-2,9.597619772E-3,1.001294750E-1,1.111769610E-1
5.693942458E0,4.752218084E-2,-5.689779371E-3,8.619146705E-2,9.858854017E-2
5.703930458E0,3.127993138E-2,-1.176211283E-2,6.333587050E-2,7.161154863E-2
5.713917458E0,2.511993537E-2,4.888710827E-3,5.814705133E-2,6.352944377E-2
5.723904458E0,2.203106605E-2,-1.319438830E-2,5.624846041E-2,6.183323582E-2
5.733892458E0,-9.997551050E-4,-1.518112600E-2,6.780372798E-2,6.948965121E-2
5.743879458E0,-3.570213947E-3,-2.064607993E-2,8.594997704E-2,8.846697461E-2
5.753866458E0,-1.069230990E-2,-2.736292273E-2,9.874485433E-2,1.030223339E-1
5.763854458E0,-1.822502658E-2,-3.245204687E-2,1.309098029E-1,1.360979920E-1
5.773841458E0,-2.297500765E-2,-1.843685567E-2,8.477234781E-2,8.974474679E-2
5.783828458E0,-1.236571907E-2,-1.524032906E-2,3.546979487E-2,4.053745165E-2
5.793816458E0,-2.970792116E-3,-6.703832746E-3,8.301292062E-3,1.107602949E-2
5.803803458E0,8.485698625E-3,-8.107164502E-4,6.868724227E-3,1.094731542E-2
5.813790458E0,1.545587661E-2,-1.941436395E-2,-4.901720881E-3,2.529483182E-2
5.823778458E0,2.901805478E-2,-2.340655044E-2,-6.086366773E-3,3.777509718E-2
5.833765458E0,1.008043533E-2,-2.596163750E-2,-2.812101424E-2,3.957793880E-2
5.843752458E0,1.771174612E-2,-4.671925306E-3,-3.435122252E-2,3.892992839E-2
5.853740458E0,5.363988960E-3,-3.172202200E-2,-3.018566608E-2,4.411613644E-2
5.863727458E0,2.904636809E-2,-1.160745397E-2,5.237351060E-3,3.171520665E-2
5.873714458E0,5.463132613E-2,1.813543171E-2,3.706257641E-2,6.846247328E-2
5.883702458E0,4.112714960E-2,-2.086578906E-2,5.350845516E-2,7.063977888E-2
5.893689458E0,1.477611038E-2,-1.101176888E-2,6.795926392E-2,7.041345074E-2
5.903676458E0,-2.335702269E-3,-2.863206089E-2,8.550266504E-2,9.019953517E-2
5.913664458E0,5.846941564E-3,-2.668771550E-2,7.783696532E-2,8.249250908E-2
5.923651458E0,2.520352315E-2,-4.757396981E-2,5.312020004E-2,7.563237293E-2
5.933638458E0,4.813252509E-2,-4.901121542E-2,3.568321824E-2,7.740885784E-2
5.943626458E0,6.273622940E-2,-6.586713016E-2,4.201516807E-2,1.001977428E-1
5.953613458E0,5.590442943E-2,-5.245317891E-2,6.784699738E-2,1.023711691E-1
5.963600458E0,3.291781871E-2,-5.305368796E-2,5.348155797E-2,8.221042292E-2
5.973588458E0,4.730178649E-2,-2.842068404E-2,2.897763133E-2,6.232894515E-2
5.983575458E0,6.136855196E-2,-2.594848126E-2,1.288550913E-2,6.786353362E-2
5.993562458E0,3.952279240E-2,-9.504502863E-3,2.175164223E-3,4.070771466E-2
6.003550458E0,6.249499521E-2,1.049940661E-2,-3.992478848E-3,6.349647119E-2
6.013537458E0,7.867364706E-2,2.390502557E-2,-1.879528999E-2,8.434604861E-2
6.023524458E0,8.389409602E-2,2.128898129E-2,-1.543664932E-2,8.791888428E-2
6.033512458E0,8.833176725E-2,1.360793263E-2,-1.383275807E-2,9.043794630E-2
6.043499458E0,7.945458840E-2,1.119317874E-2,2.845430553E-2,8.513498911E-2
6.053486458E0,8.341269658E-2,-3.145948201E-3,6.025087953E-2,1.029453419E-1
6.063474458E0,9.525595780E-2,-8.607978523E-3,3.559843361E-2,1.020541193E-1
6.073461458E0,9.439966961E-2,1.683077171E-2,1.070859075E-2,9.648443613E-2
6.083448458E0,4.726432777E-2,1.883256599E-2,2.925361991E-3,5.096214246E-2
6.093436458E0,4.737212667E-2,9.541778862E-3,2.918930054E-2,5.645510778E-2
6.103423458E0,2.713028120E-2,1.400598183E-2,5.089884281E-2,5.935412273E-2
6.113410458E0,4.273131494E-3,1.245033011E-2,6.126829505E-2,6.266637337E-2
6.123398458E0,1.834596802E-2,1.740116760E-2,6.611563683E-2,7.078596336E-2
6.133385458E0,3.129283637E-2,4.870438278E-3,6.706171632E-2,7.416357983E-2
6.143372458E0,4.179378700E-2,1.099261925E-2,7.020927250E-2,8.244331541E-2
6.153360458E0,7.207443380E-2,-1.905753762E-3,7.238034368E-2,1.021629583E-1
6.163347458E0,5.701910059E-2,-1.635436982E-2,6.333353162E-2,8.677430191E-2
6.173334458E0,3.316045532E-2,-1.640509441E-2,8.184990942E-2,8.982288457E-2
6.183321458E0,2.685510575E-2,-5.293191969E-4,6.370599926E-2,6.913704669E-2
6.193309458E0,2.629949236E-2,-5.393910259E-3,5.593212605E-2,6.204160129E-2
6.203296458E0,3.073116106E-2,-4.242593497E-3,5.703783453E-2,6.492856403E-2
6.213283458E0,5.274977893E-2,4.750862718E-3,3.660590887E-2,6.438246996E-2
6.223271458E0,2.446659125E-2,2.603428915E-2,2.008752465E-2,4.098666790E-2
6.233258458E0,3.276035045E-2,1.686351612E-2,1.947415173E-2,4.167566824E-2
6.243245458E0,3.833811453E-2,1.418929204E-2,3.466638744E-2,5.359949116E-2
6.253233458E0,5.489276976E-2,-1.608481318E-2,2.771755636E-2,6.356257010E-2
6.263220458E0,7.136584262E-2,-5.387975335E-2,2.451912940E-2,9.272162111E-2
6.273207458E0,6.866781398E-2,-2.771960288E-2,3.640768826E-2,8.251766372E-2
6.283195458E0,4.671830289E-2,-3.388183728E-2,2.159610629E-2,6.161956288E-2
6.293182458E0,5.836029655E-2,-4.825356245E-2,2.007290661E-2,7.834061579E-2
6.303169458E0,7.362212783E-2,-4.694290906E-2,1.987468600E-2,8.954807402E-2
6.313157458E0,4.817558892E-2,-4.173976421E-2,2.985003591E-2,7.038550936E-2
6.323143667E0,5.616437928E-3,-2.960927680E-2,2.813797116E-2,4.123104496E-2
6.333130667E0,2.244099698E-2,-1.495454639E-2,2.430512130E-2,3.630393539E-2
6.343118667E0,5.250316804E-2,-1.530128628E-2,1.910811603E-2,5.792954440E-2
6.353105667E0,5.919154221E-2,-2.097980976E-2,1.540507436E-2,6.466148314E-2
6.363092666E0,3.843614676E-2,-2.855590090E-2,-7.189151645E-3,4.841963192E-2
6.373080667E0,1.488099481E-2,1.367605269E-2,-3.120366633E-2,3.717724057E-2
6.383067667E0,2.893572781E-2,1.629823655E-2,-5.172096133E-2,6.146516655E-2
6.393054666E0,1.339809524E-2,2.838969380E-3,-5.581635118E-2,5.747202591E-2
6.403042667E0,2.396550314E-2,1.387982816E-3,-1.441221714E-2,2.799971143E-2
6.413029667E0,3.708302340E-2,7.061974704E-4,3.455295146E-2,5.069078608E-2
6.423016666E0,3.031416778E-2,-7.453738153E-4,7.434851646E-2,8.029449702E-2
6.433003666E0,4.193877054E-2,-6.409571618E-3,4.190582514E-2,5.963255205E-2
6.442991666E0,4.750468487E-2,1.047821045E-3,3.936170161E-2,6.170199808E-2
6.452978666E0,6.226849783E-2,1.584595442E-2,1.623245537E-2,6.627180925E-2
6.462965666E0,6.575818466E-2,2.322411731E-2,-9.409924150E-3,7.037076912E-2
6.472953666E0,5.611254919E-2,1.071604595E-2,-1.433152556E-3,5.714460380E-2
6.482940666E0,4.813133280E-2,6.793441325E-3,3.624513566E-2,6.063403254E-2
6.492927666E0,3.717070422E-2,2.697817594E-2,5.740971744E-2,7.352114584E-2
6.502915666E0,3.338695270E-2,9.467080683E-3,6.520697951E-2,7.386653102E-2
6.512902666E0,4.764951766E-2,8.900924027E-4,9.317947447E-2,1.046598455E-1
6.522889666E0,5.870653851E-2,-5.687586665E-3,1.001171958E-1,1.161992221E-1
6.532877666E0,7.628319110E-2,-6.375073045E-3,8.681302607E-2,1.157422494E-1
6.542864666E0,7.218675972E-2,-4.880963266E-3,4.901662409E-2,8.739211360E-2
6.552851666E0,8.696284270E-2,-4.985189885E-3,2.816954613E-2,9.154731813E-2
6.562839666E0,1.018207821E-1,5.038691908E-3,-2.737958729E-2,1.055580499E-1
6.572826666E0,1.081765776E-1,1.453398541E-2,-4.033350885E-2,1.163623677E-1
6.582813667E0,7.364920318E-2,1.341453597E-2,-2.514712036E-2,7.897172004E-2
6.592801666E0,7.495119995E-2,-1.214393601E-2,1.374914289E-2,7.716344008E-2
6.602788666E0,5.549019988E-2,-1.303651348E-2,6.652903497E-2,8.760836410E-2
6.612775667E0,7.762489412E-2,-1.888738364E-2,5.514742970E-2,9.707521028E-2
6.622762667E0,7.650185413E-2,-2.024423003E-2,3.720466375E-2,8.744455123E-2
6.632750666E0,7.636290967E-2,-1.893313810E-2,1.504839420E-2,8.010126003E-2
6.642737667E0,8.372745037E-2,-2.349586666E-2,1.427656174E-2,8.812582999E-2
6.652724667E0,8.563672160E-2,-1.510686636E-2,9.873608351E-3,8.751773328E-2
6.662712667E0,6.945970514E-2,-2.284390211E-2,-4.514050484E-4,7.312112053E-2
6.672699667E0,4.483149776E-2,-2.456546858E-2,1.743054986E-3,5.115040253E-2
6.682686666E0,2.397816145E-2,-3.087212920E-2,-7.049987912E-3,3.972081215E-2
6.692674667E0,5.749553447E-3,-2.802555844E-2,-1.290422022E-2,3.138484014E-2
6.702661667E0,-1.454791822E-3,-4.909848511E-2,4.340388179E-3,4.931142493E-2
6.712648666E0,3.524071192E-3,-2.637123495E-2,2.571020722E-2,3.699832248E-2
6.722636667E0,-6.808575564E-3,-1.698776945E-2,3.598376513E-2,4.037043925E-2
6.732623667E0,4.169124146E-3,-2.801781088E-2,5.098362744E-2,5.832417672E-2
6.742610666E0,1.972443083E-2,-8.757374883E-3,6.121040761E-2,6.490345743E-2
6.752598667E0,3.982944688E-2,5.997342914E-3,6.707516491E-2,7.823957253E-2
6.762585666E0,6.281307461E-2,-4.316560775E-3,5.461708724E-2,8.334951264E-2
6.772572666E0,7.635156241E-2,-1.254870951E-2,6.151855588E-2,9.885122109E-2
6.782559666E0,7.231867382E-2,4.959608316E-3,3.790457547E-2,8.180064266E-2
6.792547666E0,8.609879781E-2,-5.351664126E-3,-8.894199729E-3,8.672225829E-2
6.802534666E0,8.276373787E-2,2.191390246E-3,-1.770653844E-2,8.466498686E-2
6.812521666E0,6.449367859E-2,7.478296459E-3,-8.202474117E-3,6.544188321E-2
6.822509666E0,3.262535971E-2,-4.459671378E-3,3.750754952E-2,4.991111135E-2
6.832496666E0,1.777643322E-2,1.627382442E-2,4.861433566E-2,5.426041440E-2
6.842483666E0,2.624835663E-2,4.497736752E-2,6.625480056E-2,8.427121936E-2
6.852471666E0,3.798392629E-2,4.987572625E-2,5.725476623E-2,8.490273836E-2
6.862458666E0,3.003429172E-2,2.561182782E-2,5.248987019E-2,6.567503998E-2
6.872445666E0,-1.176593179E-2,-8.207590431E-3,5.120465219E-2,5.317629263E-2
6.882432667E0,-2.083717424E-2,3.913892269E-2,2.870632052E-2,5.282135873E-2
6.892420666E0,2.136782962E-2,1.883665904E-2,5.936970413E-2,6.584956822E-2
6.902407667E0,-2.104576453E-2,-3.170594215E-2,1.958349466E-2,4.279841394E-2
6.912394667E0,-6.255281413E-2,-2.980033457E-3,4.343019426E-2,7.620969051E-2
6.922382666E0,-5.613225614E-2,8.814823776E-3,3.544757545E-2,6.697060476E-2
6.932369667E0,-3.613587953E-2,-1.331791073E-2,4.661809623E-2,6.046830105E-2
6.942356667E0,3.761678282E-3,1.166271016E-2,4.402427137E-2,4.569798137E-2
6.952344666E0,-1.482326384E-2,2.143194571E-2,4.072351813E-2,4.834730992E-2
6.962331667E0,-1.676786161E-2,2.571693152E-2,6.129109919E-2,6.855013195E-2
6.972318667E0,-1.061473266E-2,1.563720882E-2,6.936025679E-2,7.188908172E-2
6.982306667E0,-1.721077335E-2,-2.108944505E-3,7.910698056E-2,8.098501553E-2
6.992293667E0,-3.038437092E-3,-1.297043994E-2,6.044091403E-2,6.189158668E-2
7.002280666E0,-7.784558083E-3,-1.345502794E-2,3.969557762E-2,4.263069322E-2
7.012267666E0,-1.624453353E-2,-2.315599725E-2,1.487239301E-2,3.195736460E-2
7.022255667E0,-5.013133180E-3,-5.032113791E-2,-3.075050712E-3,5.066363944E-2
7.032242666E0,3.024372711E-2,-4.916192740E-2,1.180143535E-2,5.891393733E-2
7.042229666E0,4.777824777E-2,-6.198165536E-2,8.765911818E-2,1.175100317E-1
7.052217667E0,6.097224321E-2,-7.893565714E-2,1.553277755E-1,1.845946106E-1
7.062204666E0,8.815707254E-2,-9.174968407E-2,2.028013194E-1,2.394118817E-1
7.072191666E0,8.437364079E-2,-9.543050632E-2,2.365087634E-1,2.686303929E-1
7.082179666E0,7.866893275E-2,-8.393590361E-2,2.065926540E-1,2.364626008E-1
7.092166666E0,6.400177700E-2,-4.047369584E-2,9.874894738E-2,1.244415611E-1
7.102153666E0,3.033069074E-2,-6.371710896E-3,-1.941509485E-2,3.657178432E-2
7.112140666E0,1.042800662E-2,1.193679839E-2,-9.127035856E-2,9.263643360E-2
7.122128666E0,1.404332179E-2,2.275838658E-2,-9.030556798E-2,9.418202936E-2
7.132115666E0,1.659985238E-2,7.791561037E-3,-3.858869970E-2,4.272412980E-2
7.142102667E0,1.325675708E-2,9.035117626E-3,5.401190042E-2,5.634412433E-2
7.152090666E0,2.099876753E-3,9.076925218E-3,6.832880795E-2,6.896104734E-2
7.162077666E0,-1.856653595E-2,-2.640017867E-4,2.907995760E-2,3.450260698E-2
7.172064667E0,-1.044455241E-2,-3.515199870E-3,-5.266002417E-3,1.221376628E-2
7.182052666E0,8.790379674E-3,-9.434920996E-3,-4.391258955E-3,1.362246909E-2
7.192039666E0,-9.281860990E-4,-2.435204521E-2,-3.766191602E-3,2.465903150E-2
7.202026667E0,-1.378417136E-3,-3.404278189E-2,3.378228843E-2,4.797972535E-2
7.212013667E0,-1.277154325E-2,-4.869356543E-2,5.050006270E-2,7.130520292E-2
7.222001667E0,-2.946243403E-2,-4.282091439E-2,4.543111145E-2,6.903369913E-2
7.231988667E0,-1.395998526E-2,-5.665162593E-2,6.534497380E-2,8.760281679E-2
7.241975666E0,-1.391545963E-2,-4.941233441E-2,7.655408621E-2,9.217237614E-2
7.251963667E0,-9.294642638E-3,-4.790375277E-2,7.796735823E-2,9.197863263E-2
7.261950667E0,-3.708196359E-2,-6.028040797E-2,8.152363479E-2,1.079578744E-1
7.271937666E0,-3.671096232E-2,-3.887696743E-2,7.127054214E-2,8.909884134E-2
7.281924666E0,-6.325321463E-2,-3.915558726E-2,4.612342179E-2,8.752999036E-2
7.291912667E0,-5.715756540E-2,-3.244941562E-2,5.484162033E-2,8.560114004E-2
7.301899666E0,-3.638190569E-2,-2.477859959E-2,5.678523481E-2,7.184834690E-2
7.311886666E0,-1.998106421E-2,-3.027454376E-2,5.844993711E-2,6.879088657E-2
7.321875333E0,-1.964234141E-2,-2.925274283E-2,5.391132832E-2,6.440478134E-2
7.331862333E0,-2.895797464E-2,-2.967622742E-2,6.640331984E-2,7.828565420E-2
7.341849333E0,-9.720708230E-3,-3.501824364E-2,4.591058314E-2,5.855383164E-2
7.351836333E0,-2.360042218E-2,-3.728842512E-2,-1.488701105E-3,4.415453324E-2
7.361824333E0,-2.873623725E-2,-3.474561721E-2,-4.415232539E-2,6.310671188E-2
7.371811333E0,-2.938879566E-2,-4.657614246E-2,-2.137858987E-2,5.907691987E-2
7.381798333E0,-1.982973553E-2,-6.130849466E-2,2.647736192E-2,6.966348127E-2
7.391786333E0,7.181710149E-3,-6.175580665E-2,6.508828104E-2,9.001022689E-2
7.401773333E0,-1.706473343E-2,-4.964198381E-2,8.311817050E-2,9.830646953E-2
7.411760333E0,-3.048646878E-3,-5.680350736E-2,8.357951581E-2,1.011012767E-1
7.421747333E0,2.922263423E-2,-6.217037424E-2,4.532410741E-2,8.230062271E-2
7.431735333E0,5.298247070E-2,-7.136424378E-2,5.562456250E-3,8.905581627E-2
7.441722333E0,3.136119397E-2,-6.809930474E-2,-2.730649710E-4,7.497409124E-2
7.451709333E0,2.908868275E-2,-5.655251563E-2,4.098488867E-2,7.565777942E-2
7.461697333E0,2.823333560E-2,-5.029994175E-2,8.701592445E-2,1.043981632E-1
7.471684333E0,2.267690929E-2,-5.807717711E-2,1.047715795E-1,1.219191724E-1
7.481671333E0,2.847317650E-2,-5.001211256E-2,9.476348519E-2,1.108695238E-1
7.491658333E0,3.586318229E-2,-6.013013452E-2,8.409290135E-2,1.094231099E-1
7.501646333E0,3.432149079E-2,-7.499960393E-2,8.439461768E-2,1.180057491E-1
7.511633333E0,2.958739086E-2,-5.326652661E-2,6.999117136E-2,9.279817144E-2
7.521620333E0,4.874005993E-3,-4.538301811E-2,6.103966892E-2,7.621820943E-2
7.531608333E0,3.938483465E-3,-7.254991293E-2,8.377481282E-2,1.108928347E-1
7.541595333E0,6.470825770E-3,-5.309476465E-2,1.134324753E-1,1.254107335E-1
7.551582333E0,1.733185526E-3,-3.883808345E-2,1.016462427E-1,1.088271994E-1
7.561569333E0,5.178269057E-3,-3.777520582E-2,7.973672569E-2,8.838396952E-2
7.571557333E0,1.177730417E-2,-3.284980372E-2,7.858891726E-2,8.598855978E-2
7.581544333E0,3.643021374E-2,-3.484779730E-2,5.658876836E-2,7.578798160E-2
7.591531333E0,2.466286355E-2,-5.738632858E-2,3.360394835E-3,6.255189685E-2
7.601519333E0,2.318694181E-2,-6.154165238E-2,-3.551540315E-2,7.474190999E-2
7.611506333E0,5.024820759E-3,-6.572621226E-2,-4.349860668E-2,7.897665848E-2
7.621493333E0,6.300799702E-3,-6.398827359E-2,-2.899283409E-2,7.053214631E-2
7.631480333E0,1.958518944E-2,-6.935733318E-2,1.265922189E-3,7.208066225E-2
7.641468333E0,2.725059223E-2,-4.665902674E-2,2.854318321E-2,6.110951531E-2
7.651455333E0,3.975755811E-2,-6.376052454E-2,1.455255032E-2,7.653655752E-2
7.661442333E0,5.502735165E-2,-5.145008907E-2,6.502103806E-4,7.533620556E-2
7.671430333E0,4.679890310E-2,-3.587120622E-2,1.146638989E-3,5.897622867E-2
7.681417333E0,2.367884111E-2,-5.246165738E-2,2.017289400E-3,5.759325019E-2
7.691404333E0,1.370600140E-2,-7.765643254E-2,-7.926485538E-3,7.925405455E-2
7.701391333E0,7.562295366E-3,-6.288534254E-2,-4.024930894E-2,7.504506305E-2
7.711379333E0,-1.276883206E-2,-5.322544992E-2,-5.278690875E-2,7.604241794E-2
7.721366333E0,-2.697221909E-2,-4.657234177E-2,-9.179426908E-2,1.064080423E-1
7.731353333E0,-2.386094990E-2,-2.808563858E-2,-9.430447876E-2,1.012496061E-1
7.741340333E0,-3.087797185E-2,-2.162475765E-2,-3.211407781E-2,4.952164458E-2
7.751328333E0,-3.595276575E-2,-3.013187170E-2,-1.625175118E-2,4.964524623E-2
7.761315333E0,-1.791672985E-2,-2.111531898E-2,-7.175118327E-3,2.860678639E-2
7.771302333E0,-1.223734985E-2,-8.499512672E-3,1.716859460E-2,2.273224774E-2
7.781290333E0,2.953979087E-3,-1.731097430E-2,1.073081017E-2,2.058023592E-2
7.791277333E0,3.824413424E-2,-3.988283470E-2,1.150147319E-2,5.644057223E-2
7.801264333E0,5.940560055E-2,-4.196736708E-2,1.788955629E-2,7.490207942E-2
7.811251333E0,3.191602850E-2,-5.023781508E-2,3.830452502E-2,7.077928776E-2
7.821239333E0,2.175980320E-2,-3.162802801E-2,4.159066021E-2,5.660039053E-2
7.831226333E0,2.882428810E-2,-3.621867701E-2,1.254169285E-2,4.795754590E-2
7.841213333E0,5.001529655E-2,-3.336757466E-2,1.206572950E-2,6.132297087E-2
7.851200333E0,8.139829424E-2,-3.783850193E-2,3.788469493E-2,9.743040924E-2
7.861188333E0,8.087149666E-2,9.633287787E-5,9.380921960E-2,1.238562793E-1
7.871175333E0,3.093535679E-2,1.606902570E-2,1.337363470E-1,1.382049941E-1
7.881162333E0,3.352634941E-2,-7.140473574E-3,1.536005080E-1,1.573789011E-1
7.891150333E0,6.217559106E-2,4.751155078E-3,1.429153061E-1,1.559267851E-1
7.901137333E0,6.471307708E-2,-1.987614781E-3,9.943131745E-2,1.186520958E-1
7.911124333E0,5.730960215E-2,-7.612343878E-3,6.788383484E-2,8.916587525E-2
7.921111333E0,7.760607339E-2,-2.305352479E-2,9.532598734E-2,1.250648292E-1
7.931099333E0,1.047259073E-1,-2.495328516E-2,1.176161581E-1,1.594482447E-1
7.941086333E0,7.835084422E-2,-1.574362814E-2,1.306203657E-1,1.531286928E-1
7.951073333E0,6.933564824E-2,-4.464816928E-2,1.328633577E-1,1.563763503E-1
7.961060333E0,7.976091854E-2,-1.664468408E-2,1.271196377E-1,1.509909002E-1
7.971048333E0,6.459896958E-2,-2.301975712E-2,9.981489480E-2,1.211030524E-1
7.981035333E0,7.331385165E-2,-1.067643106E-2,9.321631193E-2,1.190721959E-1
7.991022333E0,6.780593896E-2,2.881975651E-2,7.450814545E-2,1.047840038E-1
8.001010333E0,4.671825721E-2,1.328399688E-2,2.839641809E-2,5.626203596E-2
8.010997333E0,6.295237082E-2,1.166022509E-2,2.966175556E-2,7.056048174E-2
8.020984333E0,6.639002656E-2,1.329496041E-2,4.393013120E-2,8.071089162E-2
8.030971333E0,6.511823888E-2,-4.216427207E-3,6.608055353E-2,9.286981667E-2
8.040959333E0,8.559092145E-2,-1.034387067E-2,6.517949760E-2,1.080794541E-1
8.050946333E0,9.036281588E-2,-3.102313355E-2,5.572747350E-2,1.106048128E-1
8.060933333E0,8.135825909E-2,-3.925864443E-2,2.219895422E-2,9.302258356E-2
8.070920333E0,7.483793298E-2,-2.301507935E-2,-1.553371310E-2,7.982296871E-2
8.080908333E0,4.863288686E-2,1.093283147E-3,-4.841611505E-2,6.863288679E-2
8.090895333E0,1.993356016E-2,-1.117636800E-2,-4.073228896E-2,4.670521797E-2
8.100882333E0,3.533883551E-2,2.943926901E-3,-2.552309632E-2,4.369128571E-2
8.110869333E0,4.604825766E-2,9.496462941E-3,-2.594175696E-2,5.369915824E-2
8.120857333E0,4.303351549E-2,-1.218340471E-2,-1.576701701E-2,4.742275436E-2
8.130844333E0,3.714688824E-2,-6.930412352E-4,-2.282226741E-2,4.360306757E-2
8.140831333E0,4.528498588E-2,-3.115688860E-3,-4.367519259E-2,6.299174479E-2
8.150818333E0,5.825766878E-2,-1.494577557E-2,-9.584229648E-2,1.131506870E-1
8.160806333E0,7.505001332E-2,-2.867094487E-2,-7.489464641E-2,1.098350383E-1
8.170793333E0,8.393214860E-2,-2.613106057E-2,-8.832219243E-3,8.834843514E-2
8.180780333E0,5.810055227E-2,-1.349961296E-2,4.175379753E-2,7.280998099E-2
8.190767333E0,5.745025052E-2,-1.877131641E-2,8.075531065E-2,1.008678036E-1
8.200755333E0,5.193450348E-2,-2.405252159E-3,4.292850316E-2,6.742280232E-2
8.210742333E0,5.937114766E-2,7.569951564E-3,3.999670923E-2,7.198592981E-2
8.220729333E0,7.337407798E-2,1.667947501E-2,1.862279713E-2,7.751624848E-2
8.230717333E0,7.154833514E-2,3.516632438E-2,3.892491460E-3,7.981845727E-2
8.240704333E0,5.831748853E-2,3.243625939E-2,3.725436509E-2,7.642596489E-2
8.250691333E0,6.904787386E-2,4.023030549E-3,1.027145290E-1,1.238308045E-1
8.260678333E0,7.440448528E-2,-2.635866344E-2,1.622403538E-1,1.804237761E-1
8.270665333E0,6.429603813E-2,-2.971715793E-2,2.382436323E-1,2.485500319E-1
8.280653333E0,3.086200164E-2,-4.572581112E-2,2.747407830E-1,2.802245720E-1
8.290640333E0,4.236499602E-2,-4.263161078E-2,2.538428342E-1,2.608609431E-1
8.300627333E0,7.404093922E-3,-2.243050396E-2,1.650785923E-1,1.667599765E-1
8.310615333E0,3.508153518E-3,1.504780948E-2,9.318707585E-3,1.804389155E-2
8.320602166E0,1.161724806E-2,3.327679664E-2,-8.660135686E-2,9.349920137E-2
8.330589166E0,-8.147585664E-3,6.469841793E-2,-1.274646235E-1,1.431764599E-1
8.340576166E0,7.924735942E-3,5.826984286E-2,-8.655107081E-2,1.046387303E-1
8.350564166E0,3.552170261E-2,7.375677824E-2,-6.034092665E-2,1.016999563E-1
8.360551166E0,5.240047175E-2,4.096325397E-2,-1.460634470E-2,6.809657055E-2
8.370538166E0,3.146704457E-2,6.259590536E-3,5.090819836E-2,6.017476238E-2
8.380525167E0,2.616817897E-2,-1.222141162E-2,7.881695867E-2,8.394194104E-2
8.390513166E0,4.930047900E-2,-3.383652136E-2,9.906411231E-2,1.157114763E-1
8.400500166E0,2.171616151E-2,-3.903250337E-2,8.995181143E-2,1.004313515E-1
8.410487167E0,-3.169604300E-3,-3.357573554E-2,4.730338991E-2,5.809463921E-2
8.420474167E0,-1.742104813E-3,-3.363552332E-2,6.801949024E-2,7.590147832E-2
8.430462167E0,8.351386255E-3,-3.240132228E-2,6.125192285E-2,6.979533931E-2
8.440449167E0,2.124309435E-2,-2.337132096E-2,1.738669574E-2,3.605252959E-2
8.450436166E0,1.768598639E-2,-1.236934617E-2,2.683287263E-2,3.443541626E-2
8.460423166E0,2.894578228E-2,-3.613579273E-3,3.992128015E-2,4.944314791E-2
8.470411167E0,3.402980381E-2,-1.845045045E-2,2.755383432E-2,4.751484457E-2
8.480398166E0,3.766671028E-2,-9.282162488E-3,-2.386248708E-3,3.886687261E-2
8.490385166E0,1.997580172E-2,-8.319564611E-3,-1.544132710E-2,2.658349849E-2
8.500372166E0,1.242983288E-2,-3.529277042E-2,7.243530750E-3,3.811232250E-2
8.510360166E0,2.772251279E-2,-4.631389484E-2,1.751299560E-2,5.674697864E-2
8.520347166E0,1.708425993E-2,-4.223926261E-2,2.703752518E-2,5.298164787E-2
8.530334166E0,3.169327014E-2,-2.622432366E-2,-5.220394135E-3,4.146602270E-2
8.540321167E0,4.867808858E-2,2.046525478E-6,-2.600841522E-2,5.519052432E-2
8.550309166E0,3.113263636E-2,-2.243825153E-2,-2.683462679E-2,4.682748524E-2
8.560296167E0,2.559444377E-2,-2.720914096E-2,4.300042391E-3,3.760190511E-2
8.570283167E0,3.108079257E-2,-2.975764990E-2,2.209078074E-2,4.836875012E-2
8.580270167E0,4.708982036E-2,-2.043411836E-2,2.383208156E-2,5.659480971E-2
8.590257166E0,5.479383761E-2,-7.002040744E-3,2.755617321E-2,6.173115823E-2
8.600245167E0,4.914489739E-2,1.417964414E-2,3.195854187E-2,6.031278178E-2
8.610232166E0,2.047849325E-2,1.860101625E-2,4.993112862E-2,5.708313321E-2
8.620219166E0,1.783626668E-2,6.794610769E-3,7.976537704E-2,8.201715991E-2
8.630206166E0,5.305402600E-2,-5.715653300E-5,9.639836669E-2,1.100335314E-1
8.640194166E0,4.464335903E-2,-2.197690621E-2,1.266208702E-1,1.360472664E-1
8.650181166E0,2.152652214E-2,-1.981387496E-2,1.342444700E-1,1.373956277E-1
8.660168166E0,9.266180859E-3,-1.595383555E-2,1.079056871E-1,1.094715684E-1
8.670155167E0,1.322806232E-2,-1.668941528E-2,6.059995830E-2,6.423296008E-2
8.680143166E0,4.819224891E-2,-4.665639549E-3,7.873275876E-3,4.905353729E-2
8.690130166E0,7.131736555E-2,-2.162695035E-2,-1.073490322E-2,7.529362362E-2
8.700117167E0,5.258890741E-2,-2.794369742E-2,3.177669346E-2,6.749964189E-2
8.710104167E0,1.441152964E-2,-3.029106215E-2,6.359899521E-2,7.190321845E-2
8.720092167E0,8.379619627E-3,-2.344528824E-2,6.420242786E-2,6.886110157E-2
8.730079167E0,1.894681054E-2,-2.919587865E-2,6.471172035E-2,7.347780420E-2
8.740066167E0,-1.620462400E-2,-4.957547173E-2,3.240760803E-2,6.140496962E-2
8.750053166E0,-4.055889160E-2,-3.394001707E-2,-1.105123758E-4,5.288629936E-2
8.760041167E0,-4.204977171E-2,-6.731460840E-3,-1.881575525E-2,4.655672359E-2
8.770028166E0,-4.645270226E-2,-1.232724622E-2,-2.155225217E-2,5.267175828E-2
8.780015166E0,-1.723379791E-2,-4.999954104E-3,-1.813396990E-2,2.551164824E-2
8.790002166E0,-1.903168196E-2,6.198487133E-3,-3.272394240E-2,3.835990833E-2
8.799989167E0,-1.890821206E-2,4.659499973E-3,-2.922146022E-2,3.511588189E-2
8.809977166E0,-4.240025290E-2,9.327770770E-3,1.738318741E-2,4.676498646E-2
8.819964166E0,-5.840251527E-2,-1.877584800E-2,5.827276647E-2,8.461147422E-2
8.829951167E0,-9.442528772E-2,-8.770531118E-3,4.575563192E-2,1.052930911E-1
8.839938167E0,-9.867353657E-2,-3.575426191E-3,7.896547794E-2,1.264309978E-1
8.849926166E0,-5.761242396E-2,-2.488677308E-2,1.570304847E-1,1.691068183E-1
8.859913167E0,-2.154988588E-2,-4.953044817E-2,1.937638628E-1,2.011519262E-1
8.869900167E0,-1.872821603E-2,-6.585967496E-2,2.154681426E-1,2.260857434E-1
8.879887166E0,9.306665976E-5,-5.885266408E-2,1.789750850E-1,1.884030939E-1
8.889875167E0,1.274163565E-2,-6.089509651E-2,1.069449896E-1,1.237246655E-1
8.899862166E0,5.917484567E-2,-4.724886462E-2,6.553266943E-2,1.001431392E-1
8.909849166E0,5.407680909E-2,-3.173664004E-2,-1.733231664E-2,6.505324590E-2
8.919836166E0,2.729663906E-2,-5.313072503E-3,-1.003218484E-1,1.041047958E-1
8.929823167E0,-8.782933610E-3,2.582671300E-2,-1.465797561E-1,1.490965591E-1
8.939811166E0,-5.003277424E-3,3.070095196E-2,-1.545319694E-1,1.576315667E-1
8.949798166E0,3.074851084E-2,2.603750512E-2,-8.490040183E-2,9.397606516E-2
8.959785167E0,3.233240507E-2,1.491917074E-2,5.444342494E-3,3.602231168E-2
8.969772167E0,5.176989065E-2,-3.838697076E-4,6.737629652E-2,8.496960790E-2
8.979760166E0,5.789376640E-2,1.974604726E-3,9.401094854E-2,1.104248418E-1
8.989747167E0,5.161855740E-2,7.447306216E-3,7.350008547E-2,9.012325118E-2
8.999734167E0,2.759200111E-2,3.738271147E-3,1.105766952E-2,2.995939338E-2
9.009721166E0,2.103839612E-3,6.421119869E-3,-4.771269500E-2,4.818877656E-2
9.019709167E0,1.415253681E-2,2.214779109E-3,-5.651509345E-2,5.830227553E-2
9.029696167E0,2.848832902E-2,-4.923940301E-3,-6.879600048E-2,7.462385517E-2
9.039683166E0,3.769113154E-2,1.476421952E-4,-4.938207507E-2,6.212272155E-2
9.049670166E0,2.494172777E-2,-8.468814790E-3,-1.097054601E-2,2.853355021E-2
9.059657166E0,2.754902864E-2,-2.790349782E-2,5.788568079E-2,6.991642304E-2
9.069645166E0,2.626576123E-2,-2.220260873E-2,1.263945830E-1,1.309902159E-1
9.079632166E0,4.981969805E-2,-2.371469870E-2,1.184663433E-1,1.306853616E-1
9.089619167E0,2.669500168E-2,-5.972653046E-2,8.312928021E-2,1.057844922E-1
9.099606167E0,3.942968919E-2,-4.904498309E-2,6.615247428E-2,9.130312486E-2
9.109594166E0,4.076904876E-2,-3.407231033E-2,7.355621874E-2,9.073893863E-2
9.119581167E0,2.935625682E-2,-2.411844894E-2,6.163959324E-2,7.240807171E-2
9.129568167E0,3.166052573E-2,-2.575932384E-2,7.431226373E-2,8.478351369E-2
9.139555166E0,3.263249743E-2,-7.574483156E-3,9.843085885E-2,1.039754137E-1
9.149542166E0,2.709968382E-2,1.949637115E-2,7.456661761E-2,8.169872589E-2
9.159530167E0,2.423576328E-2,2.257259130E-2,3.556861281E-2,4.860062054E-2
9.169517166E0,2.347667134E-2,3.857437402E-2,1.351291537E-3,4.517701204E-2
9.179504166E0,3.167133851E-2,3.950568929E-2,-4.933880568E-3,5.087353288E-2
9.189491166E0,1.565749135E-2,3.362470597E-2,-7.811880112E-4,3.709970541E-2
9.199478167E0,1.864274619E-2,1.800094575E-2,3.371504545E-3,2.613337093E-2
9.209466166E0,1.947421112E-2,1.095154256E-2,1.547465622E-2,2.717804570E-2
9.219453166E0,1.595012165E-2,-2.083231375E-2,3.012777865E-2,3.995090391E-2
9.229440167E0,3.587133413E-2,-2.106576383E-2,3.178721845E-2,5.235404736E-2
9.239427167E0,6.892782322E-2,-2.054141477E-2,4.202569306E-2,8.330158108E-2
9.249415167E0,4.641299601E-2,-3.698466226E-2,2.879870653E-2,6.596511911E-2
9.259402167E0,3.766444677E-2,-2.008562431E-2,5.529770315E-2,6.985612949E-2
9.269389166E0,2.411981025E-2,3.679214269E-3,6.236640215E-2,6.696917187E-2
9.279376166E0,1.264921767E-3,-2.145928144E-4,6.234652162E-2,6.235972125E-2
9.289363166E0,-4.950622790E-3,-6.370541453E-4,6.733770490E-2,6.752244815E-2
9.299351166E0,-4.747993927E-3,2.633849055E-2,1.546471596E-2,3.090981996E-2
9.309338166E0,-1.053456299E-2,-1.634764552E-2,-3.086686671E-2,3.648268071E-2
9.319325166E0,-1.337705897E-2,-4.051243365E-3,-8.846486449E-2,8.956221597E-2
9.329312333E0,-1.404380144E-2,-1.694069937E-2,-7.176346242E-2,7.506137617E-2
9.339300333E0,-5.607137200E-3,-3.502379850E-2,-1.011451364E-2,3.688373401E-2
9.349287333E0,2.222104574E-2,-8.232514188E-2,8.764333069E-2,1.222806496E-1
9.359274333E0,4.210750840E-2,-6.904509187E-2,1.617094266E-1,1.808043297E-1
9.369261333E0,3.099139184E-2,-3.669990286E-2,2.120188701E-1,2.173921584E-1
9.379248333E0,1.934235184E-2,-5.863836363E-2,1.839855641E-1,1.940702761E-1
9.389236333E0,2.929038656E-2,-5.537971035E-2,1.284773612E-1,1.429379985E-1
9.399223333E0,4.642934537E-2,-2.205905959E-2,6.204480529E-2,8.057198077E-2
9.409210333E0,5.556956670E-2,1.954051763E-2,-1.173243821E-2,6.006212349E-2
9.419197333E0,4.920479480E-2,3.840992108E-2,-5.809676528E-2,8.527407581E-2
9.429184333E0,2.493541460E-2,4.934728414E-2,-6.661265016E-2,8.656890039E-2
9.439172333E0,4.570619554E-2,5.435615525E-2,-3.174979627E-2,7.779265703E-2
9.449159333E0,4.504451457E-2,3.112911433E-2,1.035541892E-3,5.476406120E-2
9.459146333E0,2.420819000E-2,2.634740755E-2,-2.282752991E-3,3.585294003E-2
9.469133333E0,3.922091619E-2,-1.021903262E-2,6.707925797E-3,4.108168890E-2
9.479120333E0,4.778985084E-2,-3.388446853E-2,1.459581971E-2,6.037437373E-2
9.489108333E0,6.312645796E-2,-3.898747981E-2,3.899800479E-2,8.382015064E-2
9.499095333E0,5.453054845E-2,-4.459145129E-2,4.444702506E-2,8.329175397E-2
9.509082333E0,4.208877903E-2,-3.343423292E-2,1.853567362E-2,5.685845978E-2
9.519069333E0,2.048306367E-2,-2.212527931E-2,-7.875030041E-3,3.116247711E-2
9.529056333E0,3.383558717E-3,-2.439209864E-2,-2.815668225E-2,3.740617196E-2
9.539044333E0,-1.719444226E-2,-3.232998624E-2,1.780477166E-3,3.666124594E-2
9.549031333E0,1.396071845E-2,-3.972320572E-2,2.761055231E-2,5.035054449E-2
9.559018333E0,3.980871211E-2,-5.799809352E-2,5.320849299E-2,8.820235903E-2
9.569005333E0,1.993834756E-2,-1.663401291E-2,9.740291834E-3,2.773267701E-2
9.578992333E0,-2.453242724E-2,-3.369384930E-2,-4.711686373E-2,6.290559843E-2
9.588980333E0,-2.507153367E-2,-2.668493807E-2,-3.369048715E-2,4.975657389E-2
9.598967333E0,-1.147498713E-2,-3.322680295E-3,5.053163767E-3,1.297112169E-2
9.608954333E0,1.039898068E-2,1.940500841E-2,-1.625525951E-3,2.207567632E-2
9.618941333E0,4.242982702E-2,9.369432181E-3,1.422276735E-2,4.572049422E-2
9.628928333E0,5.916229242E-2,-1.929405749E-2,4.340446651E-2,7.587084560E-2
9.638916333E0,6.507734491E-2,-2.850663811E-2,6.694886506E-2,9.762089822E-2
9.648903333E0,5.685510904E-2,-3.341786072E-2,9.189308703E-2,1.131087807E-1
9.658890333E0,6.137197349E-2,-3.931521624E-2,1.102638692E-1,1.321753616E-1
9.668877333E0,7.186228951E-2,-3.192711309E-2,9.129140854E-2,1.204892131E-1
9.678864333E0,9.268317377E-2,-4.220958799E-3,5.823008180E-2,1.095387129E-1
9.688852333E0,6.778122991E-2,2.750676423E-3,4.152458668E-2,7.953711491E-2
9.698839333E0,2.153907995E-2,4.020150796E-2,5.970007181E-3,4.599711070E-2
9.708826333E0,3.278223640E-2,4.344963625E-2,-2.302633524E-3,5.447795916E-2
9.718813333E0,3.447296109E-2,1.602590248E-2,7.935256362E-3,3.883533044E-2
9.728800333E0,3.167604598E-2,-2.752284408E-3,4.213035822E-2,5.278175861E-2
9.738788333E0,6.344517232E-2,-2.444428504E-3,1.088932818E-1,1.260516241E-1
9.748775333E0,5.341797406E-2,-6.801042706E-3,1.606154126E-1,1.694020215E-1
9.758762333E0,4.982971597E-2,-2.207718596E-2,1.236440527E-1,1.351231087E-1
9.768749333E0,5.525642546E-2,-2.227730691E-2,9.254212797E-2,1.100617845E-1
9.778736333E0,4.426711811E-2,-1.175875068E-3,9.216790617E-2,1.022540139E-1
9.788724333E0,5.364154327E-2,-5.571373254E-3,6.231319249E-2,8.240988607E-2
9.798711333E0,5.282310667E-2,-9.602589905E-4,4.732268572E-2,7.092699965E-2
9.808698333E0,4.324662823E-2,2.009249479E-3,3.101070821E-2,5.325384456E-2
9.818685333E0,6.273276675E-2,3.215091527E-2,-5.905687809E-5,7.049173615E-2
9.828672333E0,5.686110243E-2,3.288488701E-2,1.745686233E-2,6.796574730E-2
9.838660333E0,6.721799686E-2,1.656662375E-3,2.979565680E-2,7.354444096E-2
9.848647333E0,7.792062619E-2,-1.433269501E-2,5.456212342E-2,9.619810520E-2
9.858634333E0,6.866321387E-2,-2.580361649E-2,6.160918772E-2,9.579225216E-2
9.868621333E0,7.564870425E-2,-2.988278031E-2,4.083052218E-2,9.101010139E-2
9.878608333E0,7.292839680E-2,-4.481890798E-2,1.856958747E-2,8.759061109E-2
9.888595333E0,7.128608295E-2,-3.561158985E-2,-9.782976508E-3,8.028447909E-2
9.898583333E0,5.621428161E-2,-1.663664415E-2,8.788365126E-4,5.863101346E-2
9.908570333E0,5.182984745E-2,-4.845295250E-3,1.054311454E-2,5.311277847E-2
9.918557333E0,4.022211939E-2,2.906066179E-4,-6.026725173E-3,4.067216194E-2
9.928544333E0,3.033309129E-2,2.221064866E-3,-9.640304446E-3,3.190556419E-2
9.938531333E0,9.663903443E-3,-1.552728117E-3,1.194527686E-2,1.544317433E-2
9.948519333E0,1.041208438E-2,-2.392022833E-2,2.350580692E-3,2.619377892E-2
9.958506333E0,2.130384829E-2,-2.909062877E-2,1.164531469E-2,3.789105420E-2
9.968493333E0,6.126943252E-2,-1.409105882E-2,2.292050064E-2,6.691674416E-2
9.978480333E0,5.117444767E-2,-2.100846112E-2,1.033319950E-2,5.627570119E-2
9.988467333E0,4.110145840E-2,-1.933951959E-2,3.947572231E-2,6.018039176E-2
9.998455333E0,5.702141664E-2,-7.371584773E-3,7.213943839E-2,9.224901511E-2
1.000844233E1,3.795507166E-2,2.900218964E-4,9.748360991E-2,1.046122640E-1
1.001842933E1,3.785015068E-2,-2.118680120E-2,1.070747977E-1,1.155271689E-1
1.002841633E1,4.824601589E-2,-2.557732925E-2,6.135191023E-2,8.213363933E-2
1.003840333E1,5.257152108E-2,-6.836418360E-3,-4.315829873E-3,5.318954626E-2
1.004839033E1,3.320781320E-2,-6.252281517E-3,-9.137853205E-2,9.742631062E-2
1.005837833E1,1.673265269E-2,1.385980144E-2,-1.334451556E-1,1.352023865E-1
1.006836533E1,1.117772017E-2,2.977431446E-2,-9.515115559E-2,1.003254386E-1
1.007835233E1,-2.269425450E-3,-1.041242927E-3,-2.941383362E-2,2.951962206E-2
1.008833933E1,-2.006340032E-2,8.780617565E-3,7.525191128E-2,7.837403543E-2
1.009832633E1,-2.767831377E-2,2.201579019E-2,1.122367197E-1,1.176769533E-1
1.010831433E1,-5.760400032E-2,2.704761162E-2,1.083272713E-1,1.256367457E-1
1.011830133E1,-4.553177493E-2,2.928227127E-2,6.726286054E-2,8.634168371E-2
1.012828833E1,-3.349215690E-2,2.505078748E-2,9.723101020E-2,1.058448670E-1
1.013827533E1,-3.954737355E-2,6.810252070E-3,1.250444609E-1,1.313258980E-1
1.014826233E1,-5.176647825E-2,2.126500770E-2,1.420212668E-1,1.526499560E-1
1.015824933E1,-6.863897533E-2,9.845541716E-3,1.072279948E-1,1.276952877E-1
1.016823733E1,-3.524837041E-2,-2.421770543E-3,6.264648378E-2,7.192283725E-2
1.017822433E1,-5.891549424E-3,-5.757607073E-3,7.046479583E-2,7.094468158E-2
1.018821133E1,-2.066198161E-3,-1.438999772E-3,8.386719882E-2,8.390498754E-2
1.019819833E1,-3.809378771E-3,-1.716157794E-4,8.128565311E-2,8.137504667E-2
1.020818533E1,6.179401455E-3,-5.158998370E-3,5.207647204E-2,5.269496377E-2
1.021817233E1,1.632699297E-2,-4.162267372E-2,4.799511552E-2,6.559381664E-2
1.022816033E1,1.445799444E-3,-2.293497249E-2,5.722436070E-2,6.166628542E-2
1.023814733E1,-9.702977005E-3,-1.930034325E-2,3.451026678E-2,4.071375106E-2
1.024813433E1,-1.781687723E-4,-1.620175749E-2,2.383851349E-2,2.882366069E-2
1.025812133E1,-1.303981852E-2,-1.521694019E-2,-4.099073589E-2,4.562710340E-2
1.026810833E1,-3.035542492E-2,-3.934547558E-2,-3.766659379E-2,6.235615895E-2
1.027809633E1,-3.070094283E-2,-2.571254611E-2,6.892113090E-3,4.063476517E-2
1.028808333E1,-9.974701228E-3,-3.309480205E-2,1.620848179E-2,3.817689706E-2
1.029807033E1,-3.077078965E-2,-5.198890999E-2,-1.077992678E-2,6.136688911E-2
1.030805733E1,-1.556370978E-2,-6.371783987E-2,-2.100202918E-2,6.887145569E-2
1.031804433E1,-3.383259504E-2,-2.596412256E-2,-4.895347416E-2,6.492474706E-2
1.032803129E1,-4.285111891E-2,-5.272419736E-2,-4.544748366E-2,8.174064564E-2
1.033801929E1,-1.900013212E-2,-4.275995716E-2,-2.034246325E-2,5.102190479E-2
1.034800629E1,-1.349396446E-2,-3.200561196E-2,1.069631159E-2,3.634360130E-2
1.035799329E1,-1.072121708E-2,-2.633702874E-2,-3.131067038E-2,4.229588228E-2
1.036798029E1,-2.213212923E-2,-2.243956715E-2,-4.667481422E-2,5.631965555E-2
1.037796729E1,4.042031716E-3,-1.618977070E-2,-6.023216844E-3,1.774051400E-2
1.038795429E1,1.144171967E-2,-1.142122015E-2,3.065695167E-2,3.465841751E-2
1.039794229E1,-1.970787134E-2,-9.708570689E-3,6.697049975E-2,7.048194361E-2
1.040792929E1,-9.482240046E-3,-2.211109981E-2,8.263343632E-2,8.606450145E-2
1.041791629E1,1.521463100E-2,-3.348057210E-2,6.109989524E-2,7.131360952E-2
1.042790329E1,2.660201268E-2,-2.493895948E-2,3.589956522E-2,5.117028006E-2
1.043789029E1,2.326684081E-2,-3.455485180E-2,5.182270288E-2,6.649042186E-2
1.044787729E1,9.343078597E-3,-8.560616076E-3,6.685063183E-2,6.804104821E-2
1.045786429E1,-7.638345715E-3,-9.971695393E-3,6.858491600E-2,6.972567487E-2
1.046785229E1,-3.503487394E-2,-5.240420848E-3,8.700773835E-2,9.394280673E-2
1.047783929E1,-2.830882178E-2,-8.206859529E-3,1.136991084E-1,1.174573505E-1
1.048782629E1,-3.197484098E-2,-1.339319363E-2,8.747025311E-2,9.408938979E-2
1.049781329E1,-5.435224492E-2,-1.156286895E-2,8.182593584E-2,9.891081964E-2
1.050780029E1,-4.726921110E-2,-7.845355421E-3,8.177974284E-2,9.478319608E-2
1.051778829E1,-2.834613432E-2,-1.177336872E-3,5.030593514E-2,5.775445060E-2
1.052777529E1,-2.685117487E-2,-1.419660106E-2,6.073327482E-2,6.790478440E-2
1.053776229E1,-2.964376167E-2,-1.365076348E-2,5.710098445E-2,6.576943344E-2
1.054774929E1,-3.088917749E-2,-1.688544318E-2,5.676827788E-2,6.679743147E-2
1.055773629E1,-1.165194991E-2,-2.435321465E-2,4.294662952E-2,5.072731008E-2
1.056772329E1,-1.721685240E-3,-2.551666439E-2,1.071268380E-2,2.772771097E-2
1.057771029E1,-3.545902320E-4,-3.212577224E-2,8.911156654E-4,3.214008499E-2
1.058769829E1,2.618835415E-3,-3.902227074E-2,-8.683699965E-3,4.006248317E-2
1.059768529E1,2.564549271E-2,-2.433538064E-2,1.147399127E-2,3.716926853E-2
1.060767229E1,2.484579460E-2,-1.876810044E-2,4.959608316E-3,3.153018900E-2
1.061765929E1,2.490689801E-2,-1.587840647E-2,1.338369191E-2,3.242839141E-2
1.062764629E1,5.622086430E-3,5.066320002E-3,5.474748015E-3,9.340680918E-3
1.063763329E1,2.873247083E-2,5.708051920E-3,5.691679716E-3,2.984178203E-2
1.064762129E1,1.592612066E-2,1.153202489E-2,-2.437704206E-3,1.981341261E-2
1.065760829E1,2.021824190E-2,5.841368437E-3,-7.847548127E-3,2.246069684E-2
1.066759529E1,2.142992431E-2,-3.246958852E-3,2.026469529E-2,2.967224752E-2
1.067758229E1,2.043222487E-2,-3.276458055E-2,3.411791861E-2,5.152694365E-2
1.068756929E1,1.851052831E-2,-4.923633322E-2,3.040259778E-2,6.075503370E-2
1.069755629E1,1.824347729E-2,-7.526229009E-2,7.083901763E-2,1.049542910E-1
1.070754329E1,-1.499108007E-2,-8.120320737E-2,8.896597087E-2,1.213821953E-1
1.071753129E1,-1.210437366E-2,-5.266060889E-2,7.293290555E-2,9.076818993E-2
1.072751829E1,-3.878259428E-3,-3.165375575E-2,2.233285546E-2,3.893273151E-2
1.073750529E1,1.526762368E-2,-2.624478891E-2,-2.535937428E-3,3.046834844E-2
1.074749229E1,3.925046290E-2,-1.412526503E-2,2.935828507E-2,5.101010539E-2
1.075747929E1,4.470454009E-2,-9.907376021E-3,6.191909015E-2,7.701055596E-2
1.076746629E1,4.807814598E-2,-4.336309746E-2,6.595308423E-2,9.242118622E-2
1.077745429E1,3.826923159E-2,-3.593304053E-2,8.771700561E-2,1.022251953E-1
1.078744129E1,3.920857308E-2,-5.327982903E-2,8.911039710E-2,1.109806977E-1
1.079742829E1,5.033183648E-2,-5.694413289E-2,4.376757860E-2,8.770136243E-2
1.080741529E1,6.006206014E-2,-2.488034114E-2,-4.631579518E-3,6.517617642E-2
1.081740229E1,5.322211061E-2,4.986359328E-3,-4.504987299E-2,6.990670851E-2
1.082738929E1,1.768423222E-2,3.092299998E-3,-5.053690016E-2,5.363089284E-2
1.083737629E1,-2.051225178E-2,-8.755182177E-3,1.265922189E-3,2.233849250E-2
1.084736429E1,-2.551119176E-2,-2.163265139E-2,5.238929808E-2,6.215650460E-2
1.085735129E1,-6.788937142E-3,-2.962740317E-2,6.482574105E-2,7.159783090E-2
1.086733829E1,-2.879374553E-3,-2.322177842E-2,3.793848932E-2,4.457432852E-2
1.087732529E1,3.297235770E-4,-4.340241998E-3,4.332786798E-3,6.141617025E-3
1.088731229E1,9.981128597E-3,-1.454217151E-2,2.000624835E-2,2.667110147E-2
1.089729929E1,4.802628849E-3,-4.952445477E-3,3.657199502E-2,3.721696898E-2
1.090728629E1,8.548994735E-3,-8.673174977E-3,4.233208716E-2,4.404900542E-2
1.091727429E1,-1.394902630E-2,-3.057275176E-2,5.990297019E-2,6.868503711E-2
1.092726129E1,-1.620414206E-2,-3.352983490E-2,7.055016518E-2,7.977562193E-2
1.093724829E1,1.971900389E-3,-2.324984506E-2,6.245294094E-2,6.666943466E-2
1.094723529E1,4.202471548E-3,-4.199075595E-2,4.178186417E-2,5.938525512E-2
1.095722229E1,4.848305653E-3,-4.384403095E-2,5.110524952E-2,6.750964114E-2
1.096720929E1,1.534832896E-2,-4.594712824E-2,8.249778092E-2,9.566918862E-2
1.097719629E1,2.356467651E-2,-4.047705799E-2,1.029197663E-1,1.130759236E-1
1.098718429E1,2.034879926E-2,-5.935391665E-2,8.523369312E-2,1.058382894E-1
1.099717129E1,6.935049011E-3,-4.818193406E-2,6.515493929E-2,8.133117354E-2
1.100715829E1,3.624104261E-3,-3.678424895E-2,5.317107081E-2,6.475629602E-2
1.101714529E1,7.147581596E-4,-2.830505535E-2,2.273923695E-2,3.631473440E-2
1.102713229E1,1.258169603E-2,-1.927023008E-2,-9.702284932E-3,2.497549150E-2
1.103711929E1,9.993923949E-3,-5.186480284E-4,-3.130950093E-2,3.286993095E-2
1.104710629E1,1.772295176E-2,-3.101509362E-3,1.081676424E-2,2.099344583E-2
1.105709429E1,1.708282325E-2,-2.045546070E-2,4.200815141E-2,4.974870358E-2
1.106708129E1,2.357929911E-2,-1.513712570E-2,4.644151032E-2,5.423955938E-2
1.107706829E1,2.249451270E-3,-2.057255119E-2,5.001883686E-2,5.413108103E-2
1.108705529E1,1.978592710E-3,-2.434195876E-2,3.597382486E-2,4.348059177E-2
1.109704229E1,-9.073161073E-3,-2.778582260E-2,3.359868586E-2,4.453364886E-2
1.110702929E1,4.640423432E-3,-1.713307276E-2,2.598093331E-2,3.146560992E-2
1.111701629E1,6.957067433E-3,1.695692539E-4,1.386608720E-2,1.551444215E-2
1.112700329E1,2.462668619E-2,5.269218385E-3,3.317768633E-2,4.165329765E-2
1.113699129E1,6.899027879E-2,2.019759849E-2,3.992186487E-2,8.222747015E-2
1.114697829E1,9.966412799E-2,3.589430273E-2,4.685783207E-2,1.158317565E-1
1.115696529E1,1.161253009E-1,3.135203943E-2,6.948772609E-2,1.389121303E-1
1.116695229E1,9.396238924E-2,4.463618249E-2,1.011404586E-1,1.450886341E-1
1.117693929E1,8.866103858E-2,2.672630712E-2,2.130842328E-2,9.502170361E-2
1.118692629E1,1.069611699E-1,1.225298658E-2,-1.560797274E-2,1.087861956E-1
1.119691329E1,9.267265792E-2,6.892990172E-3,5.486150086E-2,1.079144064E-1
1.120690129E1,6.001095639E-2,-1.175144166E-3,1.242392993E-1,1.379786191E-1
1.121688829E1,6.470000764E-2,-7.584861964E-3,1.125109541E-1,1.300089840E-1
1.122687529E1,7.017648698E-2,-5.273574561E-2,9.025118887E-2,1.259010535E-1
1.123686229E1,5.300984755E-2,-6.145525977E-2,7.484436035E-2,1.104014093E-1
1.124684929E1,4.467408432E-2,-3.047817305E-2,6.766514897E-2,8.662139013E-2
1.125683629E1,3.565391821E-2,8.265916407E-3,3.818407238E-2,5.289187689E-2
1.126682329E1,5.524310934E-2,1.749384597E-2,3.544816017E-2,6.792943277E-2
1.127681029E1,3.183637618E-2,1.146112740E-2,6.419248760E-2,7.256436972E-2
1.128679829E1,1.335248239E-2,1.385351568E-2,8.659024715E-2,8.870219606E-2
1.129678529E1,3.530788638E-2,1.651253700E-3,4.311269045E-2,5.575013504E-2
1.130677229E1,5.779129851E-2,-1.515890658E-3,-1.346672237E-2,5.935894810E-2
1.131675929E1,5.102797035E-2,1.764192671E-2,-5.332894564E-2,7.588852205E-2
1.132674542E1,6.737192024E-2,2.137858987E-2,-4.131759524E-2,8.187284910E-2
1.133673242E1,8.153927609E-2,9.014944732E-3,5.061934590E-3,8.219212831E-2
1.134671942E1,8.260385307E-2,-4.525160193E-3,6.450589836E-2,1.049041684E-1
1.135670642E1,7.915516527E-2,-1.352767959E-2,7.488587558E-2,1.098017881E-1
1.136669442E1,9.763928290E-2,-1.757482991E-2,6.639688790E-2,1.193769280E-1
1.137668142E1,6.356390735E-2,-1.446893513E-2,5.886099637E-2,8.783130020E-2
1.138666842E1,1.677073269E-2,-3.153900415E-2,2.669838667E-2,4.459562880E-2
1.139665542E1,3.477978688E-3,-1.963509634E-2,1.285218000E-3,1.998212024E-2
1.140664242E1,1.105044730E-2,-7.084486485E-3,-7.366322279E-3,1.505207753E-2
1.141662942E1,3.619600992E-2,-4.760218263E-3,1.066122830E-2,3.803252030E-2
1.142661642E1,2.022591180E-2,-1.999937788E-2,9.763095975E-3,3.007292248E-2
1.143660342E1,8.530571437E-3,4.344773591E-3,2.192764342E-2,2.392632969E-2
1.144659142E1,-7.184186080E-3,-5.206068456E-3,5.111986756E-2,5.188406825E-2
1.145657842E1,-3.464516387E-3,-3.889348581E-2,9.730526984E-2,1.048476116E-1
1.146656542E1,2.099620937E-2,-4.303623810E-2,9.370806277E-2,1.052338331E-1
1.147655242E1,2.755948510E-2,-4.895011202E-2,7.441459000E-2,9.323717011E-2
1.148653942E1,1.702810611E-2,-6.230544493E-2,5.826107204E-2,8.698435135E-2
1.149652642E1,-1.453621923E-2,-5.079066932E-2,4.315537512E-2,6.821568853E-2
1.150651342E1,1.981540072E-2,-3.525593296E-2,5.083276927E-2,6.495845862E-2
1.151650042E1,4.754471546E-2,-2.500927225E-2,3.728710949E-2,6.539336511E-2
1.152648842E1,3.635918378E-2,-7.128925323E-3,1.251362622E-2,3.910757807E-2
1.153647542E1,4.208193140E-2,-1.276300997E-3,1.341819048E-2,4.418784595E-2
1.154646242E1,2.879332070E-2,7.706776410E-3,1.364740133E-2,3.278263691E-2
1.155644942E1,4.810378694E-2,1.287322998E-2,2.437119484E-3,4.985613221E-2
1.156643642E1,3.296782154E-2,2.475886524E-2,-8.074420094E-3,4.201279478E-2
1.157642342E1,2.612265977E-2,-2.156306952E-3,-1.443969905E-2,2.992570670E-2
1.158641042E1,2.793005696E-2,8.956472576E-4,-1.975832641E-2,3.422399346E-2
1.159639742E1,3.566123636E-2,-7.784105837E-3,-3.389864802E-2,4.981399824E-2
1.160638442E1,3.648492176E-2,-1.195375532E-2,-2.271877170E-2,4.461148248E-2
1.161637242E1,1.804634846E-2,2.166978121E-3,-3.429625869E-2,3.881494360E-2
1.162635942E1,-2.965369737E-3,-2.363912344E-2,-2.540030479E-2,3.482494879E-2
1.163634642E1,-3.576311953E-2,-4.207115516E-2,6.638343930E-3,5.561519959E-2
1.164633342E1,-2.845779559E-2,-5.002585351E-2,2.083713770E-2,6.120962716E-2
1.165632042E1,-2.543662149E-3,-4.850499272E-2,3.952366948E-2,6.262048375E-2
1.166630742E1,-4.733732203E-4,-4.211223185E-2,4.268350482E-2,5.996286966E-2
1.167629442E1,-1.839294674E-2,-3.455426708E-2,5.742550492E-2,6.949810414E-2
1.168628142E1,-1.465385333E-3,-4.102377266E-2,8.553014696E-2,9.487098247E-2
1.169626842E1,1.564007761E-2,-4.078199029E-2,8.684577048E-2,9.721095931E-2
1.170625642E1,1.228290788E-2,-3.317052349E-2,3.409569919E-2,4.912911721E-2
1.171624342E1,2.568937652E-3,-1.728188440E-2,2.527225077E-2,3.072376325E-2
1.172623042E1,-6.996878749E-3,1.616170406E-3,2.447819889E-2,2.550981262E-2
1.173621742E1,-1.341808084E-2,5.444781035E-3,5.615315080E-2,5.799023089E-2
1.174620442E1,-5.452848366E-3,1.876810044E-3,6.617937148E-2,6.643015264E-2
1.175619142E1,-2.266147812E-2,1.859867737E-2,4.962122619E-2,5.763436023E-2
1.176617842E1,-2.059099733E-2,1.658548102E-2,3.119664967E-2,4.089374405E-2
1.177616542E1,-1.424125917E-2,7.556356788E-3,2.252288997E-2,2.769824116E-2
1.178615242E1,3.357005278E-3,7.145736068E-3,4.394591868E-2,4.464946581E-2
1.179614042E1,-4.748578649E-3,1.511534482E-2,5.518660605E-2,5.741588748E-2
1.180612742E1,-9.774689907E-3,6.236786395E-3,5.964978576E-2,6.076626538E-2
1.181611442E1,-1.849820576E-2,-1.240589127E-2,6.840949953E-2,7.194407119E-2
1.182610142E1,-8.486146303E-3,-5.632038116E-3,5.796695709E-2,5.885492882E-2
1.183608842E1,-1.374841655E-2,7.494083941E-3,4.991066337E-2,5.230922069E-2
1.184607542E1,-1.056331485E-2,2.518834323E-3,4.891546726E-2,5.010639764E-2
1.185606242E1,2.456159480E-2,-1.555432454E-2,8.153942227E-2,8.656723592E-2
1.186604942E1,3.945148834E-2,-1.466174707E-2,1.210057890E-1,1.281163055E-1
1.187603642E1,2.653461438E-2,-3.479941159E-2,1.119309103E-1,1.201815855E-1
1.188602442E1,-5.961674899E-3,-5.326711133E-2,8.448875785E-2,1.000563687E-1
1.189601142E1,-1.231326315E-2,-5.785863742E-2,6.708568990E-2,8.944119947E-2
1.190599842E1,1.943830099E-2,-3.225397244E-2,1.928353250E-2,4.230863871E-2
1.191598542E1,1.599614563E-2,-3.624250442E-3,-3.475818872E-2,3.843362525E-2
1.192597242E1,4.225499528E-3,7.196168303E-3,-1.340649605E-2,1.579157436E-2
1.193595942E1,2.340771074E-2,-1.388348266E-2,-3.931667805E-3,2.749781855E-2
1.194594642E1,2.343736709E-2,-7.503878027E-3,3.197257519E-2,4.034679573E-2
1.195593342E1,3.451789557E-2,-2.606308669E-2,2.964362919E-2,5.243581175E-2
1.196592042E1,2.412249174E-2,-1.801117837E-2,2.951849878E-2,4.216205551E-2
1.197590742E1,3.163860324E-2,-9.786777198E-3,7.639387250E-3,3.398738679E-2
1.198589542E1,4.182693341E-2,-1.075127542E-2,-1.427948534E-2,4.548610758E-2
1.199588242E1,3.607891486E-2,-2.776009485E-2,2.809528649E-2,5.349444912E-2
1.200586942E1,3.818037218E-2,-2.102044791E-2,8.826430500E-2,9.843875043E-2
1.201585642E1,3.491050412E-2,-3.131374016E-2,1.105281633E-1,1.200656841E-1
1.202584342E1,2.632389992E-2,-1.662217230E-2,7.461456478E-2,8.084910386E-2
1.203583042E1,2.638046259E-2,-1.290641293E-2,1.306384921E-2,3.214293791E-2
1.204581742E1,4.651078155E-2,3.541804701E-3,-1.733699441E-3,4.667764877E-2
1.205580442E1,5.439610361E-2,9.450708479E-3,9.752570987E-3,5.606571697E-2
1.206579142E1,5.321656946E-2,1.997087270E-2,2.488282621E-2,6.204832038E-2
1.207577842E1,8.507807496E-2,1.549833745E-2,3.677430868E-2,9.397248045E-2
1.208576642E1,-2.966028462E-2,-4.690080911E-2,1.335123986E-1,1.445855420E-1
1.209575342E1,1.140892273E-2,-9.908106923E-4,8.588565767E-2,8.664578130E-2
1.210574042E1,4.384108907E-2,-6.139137894E-3,6.331365108E-3,4.471930555E-2
1.211572742E1,2.011266311E-2,-3.640213341E-2,2.654051185E-2,4.933592305E-2
1.212571442E1,6.157171072E-2,-2.089429423E-2,9.805195928E-3,6.575552418E-2
1.213570142E1,4.075344400E-2,-1.372151479E-2,5.879960060E-3,4.340157942E-2
1.214568842E1,1.266418745E-2,-1.823746562E-2,-6.606184244E-3,2.316524264E-2
1.215567542E1,3.356642568E-2,-1.420127884E-2,-8.792458177E-3,3.749251357E-2
1.216566242E1,4.836835974E-2,-3.934898391E-2,-1.379358172E-2,6.386003175E-2
1.217564942E1,5.442457681E-2,-3.977042198E-2,9.321046472E-3,6.804853365E-2
1.218563742E1,3.234964751E-2,9.031316936E-3,1.555476308E-2,3.701371413E-2
1.219562442E1,-1.326056234E-2,3.393797055E-2,3.270815492E-2,4.896378005E-2
1.220561142E1,-1.102585244E-2,4.985672280E-2,2.079913080E-2,5.513498048E-2
1.221559842E1,1.789184036E-3,4.523245230E-2,3.486460805E-2,5.713770047E-2
1.222558542E1,2.516285759E-2,8.329212517E-3,4.549893916E-2,5.265642076E-2
1.223557242E1,-7.336524320E-3,3.281018883E-3,4.441194177E-2,4.513324989E-2
1.224555942E1,-1.686321463E-2,5.855547935E-3,3.916172683E-2,4.303831197E-2
1.225554642E1,-8.321081232E-3,-2.339617163E-3,1.345561266E-2,1.599273940E-2
1.226553342E1,2.710304140E-2,-1.303183571E-2,4.238237321E-2,5.196796277E-2
1.227552042E1,4.435337368E-2,5.865488201E-3,6.825045526E-2,8.160729350E-2
1.228550742E1,3.134398123E-2,2.455538213E-3,7.508351147E-2,8.140029805E-2
1.229549542E1,8.058564090E-3,-1.199921742E-2,8.724864364E-2,8.843781708E-2
1.230548242E1,1.282415905E-2,-1.462096274E-2,7.104542434E-2,7.365924196E-2
1.231546942E1,1.963809304E-2,-2.736394599E-2,3.327884316E-2,4.734893495E-2
1.232545704E1,2.481654711E-2,-1.673838571E-2,5.015741587E-3,3.035114874E-2
1.233544404E1,2.286644587E-2,-2.297210231E-2,-2.562600732E-2,4.131929431E-2
1.234543104E1,8.372988976E-3,-9.435213357E-3,-4.424237251E-2,4.600562706E-2
1.235541804E1,2.333325924E-2,-2.603765130E-3,-4.617370784E-2,5.179992158E-2
1.236540504E1,5.151560529E-2,4.976711422E-3,-2.243459702E-2,5.640865526E-2
1.237539204E1,6.615392695E-2,-4.421079755E-3,-5.861307442E-2,8.849508738E-2
1.238537904E1,5.720872397E-2,-2.363883108E-3,-2.223228335E-2,6.142231243E-2
1.239536604E1,4.164056711E-2,-1.130105987E-2,1.128980398E-2,4.459944459E-2
1.240535304E1,1.301528078E-2,-4.378687441E-2,2.865544975E-2,5.392423115E-2
1.241534104E1,2.112821940E-2,-6.215297878E-2,5.130639374E-2,8.331710788E-2
1.242532804E1,-9.828557381E-3,-3.620961383E-2,4.195260286E-2,5.628283540E-2
1.243531504E1,5.426947027E-5,-1.884557605E-3,2.239483595E-2,2.247405570E-2
1.244530204E1,2.114106044E-2,-6.621094644E-3,2.466297090E-2,3.315185461E-2
1.245528904E1,-1.039251219E-5,1.036711335E-3,3.436642528E-2,3.438206022E-2
1.246527604E1,-1.675118106E-2,6.086074412E-3,4.150821447E-2,4.517271563E-2
1.247526304E1,-1.674657638E-2,9.478921294E-3,3.353612065E-2,3.866483102E-2
1.248525004E1,-7.169508655E-4,2.636874989E-2,2.813212395E-2,3.856476873E-2
1.249523704E1,1.081001710E-2,1.646575928E-2,9.007635713E-3,2.165906737E-2
1.250522404E1,1.725790168E-2,3.517246395E-3,5.884696305E-2,6.142614470E-2
1.251521104E1,2.087757028E-2,1.595851332E-3,1.049224377E-1,1.069912969E-1
1.252519904E1,1.315623522E-4,-5.701035261E-6,1.194820046E-1,1.194820772E-1
1.253518604E1,1.808099778E-2,8.247790039E-3,8.539273739E-2,8.767478611E-2
1.254517304E1,1.880319287E-2,-7.168978751E-3,5.791842520E-2,6.131474779E-2
1.255516004E1,2.316446200E-2,-3.862085938E-4,3.620128155E-2,4.297992837E-2
1.256514704E1,-1.232807762E-3,8.744949549E-3,2.527283549E-2,2.677144321E-2
1.257513404E1,-2.235518452E-3,1.060611829E-2,3.387116611E-2,3.556322794E-2
1.258512104E1,2.531661652E-4,2.446577355E-2,4.797815859E-2,5.385667898E-2
1.259510804E1,8.785669925E-3,-8.895369172E-3,7.192426085E-2,7.300284164E-2
1.260509504E1,2.623554301E-2,9.810312241E-3,9.502427101E-2,9.906643238E-2
1.261508204E1,1.530589553E-2,-1.229143202E-2,1.100539541E-1,1.117909771E-1
1.262506904E1,1.572999682E-2,-1.083050519E-2,1.078086233E-1,1.094871312E-1
1.263505604E1,3.775547147E-3,1.342491478E-2,8.240656435E-2,8.357825639E-2
1.264504304E1,2.142269067E-3,1.504357025E-2,5.212441921E-2,5.429413781E-2
1.265503104E1,9.646896268E-3,3.572180986E-2,1.535186470E-2,4.005983097E-2
1.266501804E1,1.683527133E-2,3.522231147E-2,5.525677264E-2,6.765610474E-2
1.267500504E1,2.889220716E-2,4.078506008E-2,8.868471980E-2,1.017996085E-1
1.268499204E1,2.409449363E-2,2.067838579E-2,1.192282355E-1,1.233835986E-1
1.269497904E1,1.973145206E-2,2.662851244E-2,8.632419884E-2,9.246769804E-2
1.270496604E1,3.336380595E-2,8.718929440E-3,4.472242892E-2,5.647352412E-2
1.271495304E1,-3.923984198E-4,-2.169448569E-2,1.775507033E-2,2.803653346E-2
1.272494004E1,-1.077096866E-2,-1.125106618E-2,-6.389252543E-3,1.683516570E-2
1.273492704E1,4.510181271E-3,-1.134389073E-2,7.974432707E-3,1.458139804E-2
1.274491404E1,6.420663055E-3,3.711520135E-4,2.720592499E-2,2.795576903E-2
1.275490104E1,1.770798197E-2,1.275599331E-2,3.721460402E-2,4.314179810E-2
1.276488804E1,3.130237464E-2,-2.410353854E-2,2.503836215E-2,4.677327022E-2
1.277487604E1,2.835547388E-2,-2.329589188E-2,6.334873438E-3,3.724059746E-2
1.278486304E1,3.419328374E-2,-1.777071163E-2,-4.186430991E-2,5.689990588E-2
1.279485004E1,4.572929204E-2,-1.535171852E-2,-1.017871606E-1,1.126386678E-1
1.280483704E1,5.049020010E-2,-1.547319442E-3,-1.328148258E-1,1.420965603E-1
1.281482404E1,4.132336023E-2,-9.713394642E-3,-9.216966033E-2,1.014752010E-1
1.282481104E1,3.802037775E-2,-1.526795715E-2,-4.188360572E-2,5.859092137E-2
1.283479804E1,4.547227494E-2,-1.911922574E-2,1.078226566E-2,5.049286914E-2
1.284478504E1,5.253502166E-2,-1.979311734E-2,6.627877414E-2,8.685949514E-2
1.285477204E1,4.133180672E-2,-2.753892392E-2,6.299907088E-2,8.022215099E-2
1.286475904E1,3.018012950E-2,-2.900715977E-2,3.874189675E-2,5.703674341E-2
1.287474604E1,3.327820363E-2,-1.281037241E-2,1.022444129E-2,3.709560186E-2
1.288473304E1,3.412661634E-2,-2.797892690E-4,-4.429265857E-3,3.441398874E-2
1.289472004E1,1.951058262E-2,1.124273390E-3,-2.620605111E-2,3.269073171E-2
1.290470704E1,3.167819072E-2,1.128834218E-2,3.599545956E-3,3.382146016E-2
1.291469404E1,5.559919564E-2,1.633931324E-2,3.565456688E-2,6.804036928E-2
1.292468204E1,4.851822662E-2,6.540403068E-3,6.489298403E-2,8.128895720E-2
1.293466904E1,4.920170217E-2,-1.116876662E-2,7.094719112E-2,8.705775538E-2
1.294465604E1,4.715080956E-2,-4.550887942E-3,7.898243487E-2,9.209850401E-2
1.295464304E1,2.325484260E-2,3.432754129E-3,5.428262651E-2,5.915382529E-2
1.296463004E1,2.982397011E-2,1.744458318E-2,3.349519014E-2,4.812182913E-2
1.297461704E1,2.745770701E-2,2.158236533E-2,3.446407378E-2,4.906624653E-2
1.298460404E1,1.650501328E-2,1.992073283E-2,3.425474346E-2,4.292596544E-2
1.299459104E1,2.379132464E-2,1.586261898E-2,3.257016063E-2,4.334126408E-2
1.300457804E1,3.193627220E-2,3.754584879E-2,2.965824723E-2,5.752588871E-2
1.301456504E1,1.418176832E-2,2.446942806E-2,2.470331669E-2,3.755168862E-2
1.302455204E1,2.324483838E-2,2.534972638E-2,1.697622120E-2,3.835522422E-2
1.303453904E1,3.399910136E-2,3.120629758E-2,2.478927076E-2,5.238587449E-2
1.304452604E1,3.141676993E-3,1.835426375E-2,5.063104033E-3,1.929725770E-2
1.305451304E1,-1.218146326E-2,2.448843151E-2,3.748533010E-2,4.640281563E-2
1.306450104E1,-2.371443832E-2,2.543304920E-2,5.470304132E-2,6.482003784E-2
1.307448804E1,-3.839260784E-2,1.471700326E-2,4.621405363E-2,6.185726533E-2
1.308447504E1,-3.421562650E-2,-4.262620211E-4,6.767158091E-2,7.583095449E-2
1.309446204E1,-2.166040282E-2,-8.541174084E-3,8.523427784E-2,8.835726809E-2
1.310444904E1,-3.647688183E-2,-8.371458650E-3,4.091823041E-2,5.545219390E-2
1.311443604E1,-4.256506673E-2,1.245456934E-4,-1.218735158E-2,4.427563614E-2
1.312442304E1,-4.196411457E-2,-6.626795679E-3,-4.323489726E-2,6.061483047E-2
1.313441004E1,-4.592897446E-2,-5.967814475E-3,-1.603891253E-2,4.901359219E-2
1.314439704E1,-4.873582527E-2,6.561306864E-3,3.744323015E-2,6.180798408E-2
1.315438404E1,-5.695005777E-2,3.491226286E-3,6.483217299E-2,8.636381415E-2
1.316437104E1,-2.476362980E-2,-1.374636546E-2,2.926414490E-2,4.072579159E-2
1.317435804E1,1.106372687E-2,-2.614889458E-2,4.610178709E-2,5.414374860E-2
1.318434504E1,-5.364998518E-3,-1.768358812E-2,7.906897366E-2,8.119972348E-2
1.319433204E1,-2.705616318E-2,-3.722776026E-3,8.552196085E-2,8.977695036E-2
1.320431904E1,-3.301251620E-2,1.287118345E-2,1.010702920E-1,1.071013423E-1
1.321430704E1,-3.298815889E-2,-4.547671974E-3,8.384614885E-2,9.021683116E-2
1.322429404E1,-1.513363564E-2,-1.402425438E-2,7.794689298E-2,8.063141301E-2
1.323428104E1,-1.276277699E-2,5.408820659E-3,6.722836196E-2,6.864252669E-2
1.324426804E1,-1.307307228E-2,1.700604200E-2,5.963165939E-2,6.337227694E-2
1.325425504E1,-1.142762925E-2,2.520076856E-2,2.068686426E-2,3.454874526E-2
1.326424204E1,-1.871687792E-2,2.012743190E-2,-7.941688299E-3,2.860953420E-2
1.327422904E1,-6.404994344E-3,1.833145961E-2,-5.420661271E-2,5.757971192E-2
1.328421604E1,-9.556684694E-3,9.446469247E-3,-7.082323015E-2,7.208672508E-2
1.329420304E1,-1.394303290E-2,3.568087935E-2,-6.123145759E-2,7.222758972E-2
1.330419004E1,-1.915282439E-2,3.715481624E-2,-8.757433355E-2,9.703903827E-2
1.331417704E1,5.151159447E-3,4.104920805E-2,-8.108392417E-2,9.102842789E-2
1.332416404E1,2.940736970E-2,2.638468355E-2,-8.555645943E-3,4.042454695E-2
1.333415067E1,6.144052296E-2,1.024490654E-2,8.609498799E-2,1.062649657E-1
1.334413767E1,4.889912704E-2,-1.045262888E-2,1.494869918E-1,1.576284961E-1
1.335412467E1,5.752456955E-2,-4.872674838E-2,1.674794590E-1,1.836647525E-1
1.336411167E1,7.048180300E-2,-5.641452134E-2,1.602388519E-1,1.839205601E-1
1.337409967E1,8.207217671E-2,-8.464867920E-2,1.368166602E-1,1.806101868E-1
1.338408667E1,8.299316799E-2,-6.742015064E-2,1.140563732E-1,1.563400106E-1
1.339407367E1,6.647707241E-2,-5.960359275E-2,1.047423434E-1,1.376326558E-1
1.340406067E1,4.818241828E-2,-5.365331993E-2,1.183423823E-1,1.385826238E-1
1.341404767E1,7.889185784E-2,-3.288064778E-2,1.035489267E-1,1.342663117E-1
1.342403467E1,7.674254014E-2,-7.515426278E-3,8.404495418E-2,1.140589910E-1
1.343402167E1,7.288092929E-2,-2.102878019E-2,6.971810639E-2,1.030264714E-1
1.344400867E1,6.585655035E-2,-2.970049337E-2,4.612693012E-2,8.571404910E-2
1.345399567E1,4.005515398E-2,-1.286065847E-2,2.247728169E-2,4.769738031E-2
1.346398267E1,2.673541142E-2,-2.235946029E-2,-9.027516246E-3,3.600310734E-2
1.347396967E1,1.435488930E-2,-1.613743812E-2,-2.084532380E-2,3.001678331E-2
1.348395667E1,8.732802873E-3,-1.399501830E-2,-9.352036715E-3,1.896267318E-2
1.349394367E1,3.526742411E-2,-1.993505850E-2,9.197670221E-4,4.052213879E-2
1.350393067E1,3.273328424E-2,-1.948423818E-2,-6.936551929E-3,3.871975190E-2
1.351391767E1,2.612668430E-2,-1.858055100E-2,-2.080497801E-2,3.821894318E-2
1.352390467E1,2.455820067E-2,-4.163846120E-2,1.634823024E-2,5.103068982E-2
1.353389167E1,3.190441401E-2,-4.364975721E-2,1.771238565E-2,5.689394997E-2
1.354387967E1,3.816812729E-2,-4.873990461E-2,1.379942894E-3,6.192163180E-2
1.355386667E1,5.321577461E-2,-4.512807950E-2,-2.505531907E-3,6.981933770E-2
1.356385367E1,4.414884447E-2,-6.030730516E-2,3.079143763E-2,8.083442432E-2
1.357384067E1,2.162399705E-2,-7.384843335E-2,6.189102352E-2,9.875063113E-2
1.358382767E1,2.499299826E-2,-6.636224315E-2,5.001708269E-2,8.677733482E-2
1.359381467E1,-1.472108260E-2,-5.470099479E-2,2.712347925E-2,6.280598881E-2
1.360380167E1,1.716145688E-2,-4.264725208E-2,-1.117110550E-2,4.730853317E-2
1.361378867E1,3.922391288E-2,-4.413127542E-2,-3.507686198E-2,6.867656848E-2
1.362377567E1,1.899717768E-2,-2.757064506E-2,-2.403848827E-2,4.121749807E-2
1.363376267E1,-1.867192745E-2,-8.016825020E-3,-2.679252684E-2,3.362662416E-2
1.364374967E1,-6.515340440E-2,-5.145549774E-5,-1.436953247E-2,6.671920425E-2
1.365373667E1,-5.532614437E-2,8.226740062E-3,3.232282341E-2,6.460206201E-2
1.366372367E1,-2.807756440E-2,-1.464844465E-2,8.414728045E-2,8.990935080E-2
1.367371067E1,-2.214038842E-2,-3.003992423E-2,8.459693134E-2,9.246207136E-2
1.368369767E1,-9.075527368E-3,-1.727735281E-2,9.030673742E-2,9.239144409E-2
1.369368467E1,1.178568441E-2,-1.395481870E-2,7.486482561E-2,7.706089433E-2
1.370367167E1,1.626695166E-2,-1.679554224E-2,4.932828069E-2,5.458922266E-2
1.371365867E1,4.324218800E-2,9.085696042E-3,3.223102212E-2,5.469255418E-2
1.372364567E1,4.520721334E-2,7.855880409E-3,3.891088128E-2,6.016197867E-2
1.373363367E1,2.460217128E-2,1.624546543E-2,3.435590029E-2,4.527151271E-2
1.374362067E1,2.864088881E-2,1.096075192E-2,3.733973444E-2,4.831867509E-2
1.375360767E1,2.945226992E-2,3.152233958E-3,3.467925131E-2,4.560727195E-2
1.376359467E1,3.179505737E-2,-1.547699511E-2,1.530918002E-2,3.853354440E-2
1.377358167E1,1.818968062E-2,-2.489598244E-2,1.733348608E-2,3.537123355E-2
1.378356867E1,2.613430852E-2,-2.630940065E-2,2.935126841E-2,4.729358943E-2
1.379355567E1,4.574469580E-2,-4.047881216E-2,4.464349151E-2,7.565813084E-2
1.380354267E1,2.839267451E-2,-8.178412825E-2,9.297482193E-2,1.270397777E-1
1.381352967E1,1.777567263E-3,-6.414848730E-2,1.011714488E-1,1.198075550E-1
1.382351667E1,5.249621077E-3,-7.155676335E-2,1.018906564E-1,1.246179552E-1
1.383350367E1,3.498444171E-2,-8.121183202E-2,7.988232136E-2,1.191656750E-1
1.384349067E1,3.699691401E-2,-8.745037258E-2,4.924349606E-2,1.069638313E-1
1.385347767E1,5.314261132E-2,-6.598685190E-2,4.561822236E-2,9.622590074E-2
1.386346467E1,1.057381471E-2,-6.658224463E-2,5.370024383E-2,8.619000549E-2
1.387345167E1,-2.596486489E-2,-6.206380874E-2,8.143358767E-2,1.056291615E-1
1.388343867E1,-2.013167113E-2,-5.152274072E-2,1.116490746E-1,1.246009344E-1
1.389342567E1,-2.242441464E-4,-3.001112670E-2,1.151796234E-1,1.190254748E-1
1.390341267E1,2.803138738E-2,-1.869442552E-2,4.673679471E-2,5.761569408E-2
1.391339967E1,6.458062395E-3,-3.329229176E-2,-3.107853591E-2,4.599955060E-2
1.392338767E1,2.727288931E-2,-2.200555757E-2,-8.243989348E-3,3.600025577E-2
1.393337467E1,4.488064635E-2,1.437684149E-3,-2.592187643E-2,5.184865505E-2
1.394336167E1,1.788914858E-2,2.834730148E-3,-2.290295899E-2,2.919936408E-2
1.395334867E1,5.075803455E-3,-7.024991065E-3,-4.616669118E-2,4.697315888E-2
1.396333567E1,2.609266538E-2,-3.524847776E-3,-6.892873228E-2,7.378632578E-2
1.397332267E1,5.666669622E-2,-1.093619362E-2,-4.565798342E-2,7.358917204E-2
1.398330967E1,5.102808912E-2,-3.045449182E-2,1.715280712E-2,6.185111756E-2
1.399329667E1,2.898130640E-2,-4.999603271E-2,1.053323275E-1,1.201433253E-1
1.400328367E1,2.770799981E-2,-7.794499263E-2,1.661100411E-1,1.855685881E-1
1.401327067E1,1.702208759E-2,-6.713173673E-2,1.551757479E-1,1.699292037E-1
1.402325767E1,5.275904996E-3,-4.779499456E-2,8.216741323E-2,9.520336379E-2
1.403324467E1,-4.209065654E-3,-2.554823935E-2,-1.651663005E-2,3.071201452E-2
1.404323167E1,3.785470283E-3,-2.344835803E-2,-6.310607493E-2,6.742797619E-2
1.405321867E1,2.213584084E-2,-4.805475712E-2,-5.501411319E-2,7.632697938E-2
1.406320567E1,-4.176410325E-2,-1.418446809E-2,-3.468509853E-2,5.611145618E-2
1.407319267E1,-7.515484293E-2,-4.226659834E-3,1.487531662E-2,7.672933021E-2
1.408317967E1,-5.194486858E-2,6.329610944E-4,4.823719025E-2,7.089073659E-2
1.409316667E1,-1.544779558E-2,-8.633267730E-3,8.319535375E-2,8.505665515E-2
1.410315367E1,7.134379679E-4,-5.183849037E-3,1.075946152E-1,1.077217829E-1
1.411314067E1,-7.111196383E-3,-2.245243102E-2,1.233440906E-1,1.255724709E-1
1.412312767E1,7.627066984E-3,-3.908571303E-3,1.066058511E-1,1.069497852E-1
1.413311567E1,1.318207032E-2,-6.326687336E-3,7.590212166E-2,7.729764565E-2
1.414310267E1,2.307501331E-2,-8.539566100E-3,5.187942088E-2,5.741824396E-2
1.415308967E1,1.993053148E-2,1.438415051E-3,6.903398216E-2,7.186783575E-2
1.416307667E1,-7.404808835E-3,-2.233534053E-2,7.955721617E-2,8.296414451E-2
1.417306367E1,2.262369962E-5,-1.067189947E-2,6.548004448E-2,6.634399879E-2
1.418305067E1,9.421647817E-2,4.535202786E-2,8.229780614E-2,1.330656984E-1
1.419303767E1,6.257528936E-2,-2.486762345E-2,1.026350069E-1,1.227518235E-1
1.420302467E1,3.833822873E-2,-4.156303212E-2,1.320318836E-1,1.436305111E-1
1.421301167E1,2.580395682E-2,-2.943970755E-2,1.574918300E-1,1.622843710E-1
1.422299867E1,3.553504157E-2,-3.172392234E-2,1.131956631E-1,1.228104416E-1
1.423298567E1,6.083587061E-2,-5.621250004E-2,4.378570497E-2,9.369117500E-2
1.424297267E1,9.332752323E-3,-9.601932094E-2,-4.694027781E-2,1.072855999E-1
1.425295967E1,9.316392453E-2,3.012412414E-2,-2.463022649E-2,1.009634971E-1
1.426294667E1,2.376277835E-2,5.731879324E-3,-1.586349607E-3,2.449572576E-2
1.427293367E1,-1.647501432E-2,-2.560057193E-2,-1.066064358E-2,3.225623508E-2
1.428292067E1,-3.174198476E-2,4.328401387E-4,8.640722930E-2,9.205406141E-2
1.429290767E1,-3.821938408E-2,1.633039623E-2,1.111848056E-1,1.186990487E-1
1.430289467E1,-3.626704902E-2,-2.323274195E-2,1.053071845E-1,1.137746116E-1
1.431288167E1,-3.861238092E-2,-1.210461348E-2,5.253840208E-2,6.631531740E-2
1.432286867E1,-5.228278283E-2,5.471970588E-3,-1.706334472E-2,5.526834153E-2
1.433285546E1,-3.275233794E-2,-7.600649446E-3,-5.572630405E-2,6.508384190E-2
1.434284246E1,-3.003943088E-2,2.099150419E-3,-4.411899626E-2,5.341591215E-2
1.435283046E1,-6.115720709E-2,2.650893688E-2,-1.216162384E-2,6.775568469E-2
1.436281746E1,-3.825286852E-2,2.048952073E-2,2.209078074E-2,4.869399350E-2
1.437280446E1,-2.859875917E-2,1.473673761E-2,7.168394029E-2,7.857256364E-2
1.438279146E1,-2.593997539E-2,4.395512804E-2,5.322369576E-2,7.374074447E-2
1.439277846E1,-1.759719094E-2,3.088294655E-2,1.868770123E-2,4.015778497E-2
1.440276546E1,-1.864439300E-2,2.789019540E-2,1.416195631E-2,3.641479639E-2
1.441275246E1,-2.182030818E-2,3.657404155E-2,3.553937674E-3,4.273659833E-2
1.442273946E1,4.694041943E-3,1.461277664E-2,2.075761557E-2,2.581561300E-2
1.443272646E1,3.373297539E-3,-7.214879394E-3,7.725282848E-2,7.766230185E-2
1.444271346E1,7.039515458E-3,-1.607648090E-2,9.912433863E-2,1.006659949E-1
1.445270046E1,8.669689489E-3,-1.800986275E-2,8.261297107E-2,8.499659794E-2
1.446268746E1,3.190609737E-2,-1.690824732E-2,5.858266890E-2,6.881727234E-2
1.447267446E1,3.598332202E-2,-1.737193152E-2,9.326776743E-2,1.014665458E-1
1.448266146E1,3.412803247E-2,-1.135529280E-3,7.734755337E-2,8.454972525E-2
1.449264846E1,4.427340387E-3,8.873149753E-4,3.783265471E-2,3.810116053E-2
1.450263546E1,1.674534298E-2,7.798431516E-3,2.694981694E-2,3.267284314E-2
1.451262246E1,2.345842164E-2,-1.790563613E-3,1.899643421E-2,3.023852140E-2
1.452260946E1,-1.421823576E-2,-3.478099287E-2,3.452956259E-2,5.103103356E-2
1.453259646E1,-2.251342022E-2,-3.562226102E-2,2.363444567E-3,4.220646207E-2
1.454258346E1,4.531709989E-2,2.241544738E-2,1.473790705E-2,5.266210903E-2
1.455257046E1,8.554081813E-2,6.864748120E-2,2.847827911E-2,1.133169035E-1
1.456255746E1,3.500728925E-2,1.727413684E-3,1.427656174E-2,3.784593074E-2
1.457254446E1,3.678313889E-2,-3.461113125E-3,-3.226318181E-2,4.904988798E-2
1.458253146E1,1.341095455E-2,1.863069087E-2,-5.879609227E-2,6.311843479E-2
1.459251846E1,-5.793138044E-3,3.446451232E-2,-5.349617600E-2,6.389995231E-2
1.460250646E1,2.831057366E-3,1.786280528E-2,-5.214488447E-2,5.519224288E-2
1.461249346E1,5.731646349E-3,4.228998721E-3,-3.152935624E-2,3.232393084E-2
1.462248046E1,1.500179007E-2,-7.259318233E-4,-1.413213551E-2,2.062275288E-2
1.463246746E1,1.396188560E-2,9.291810393E-3,-2.914369226E-2,3.362479425E-2
1.464245446E1,2.454683058E-2,-6.818876714E-3,-7.864505053E-3,2.666260323E-2
1.465244146E1,3.735064771E-2,-1.221804947E-2,1.804333806E-2,4.324249838E-2
1.466242846E1,2.540264825E-2,-9.830777496E-3,3.219886243E-2,4.217470173E-2
1.467241546E1,7.388792946E-3,-1.454085588E-2,4.763375759E-2,5.034883924E-2
1.468240246E1,5.108639225E-4,-2.977723807E-2,5.910657942E-2,6.618559224E-2
1.469238946E1,3.247324303E-3,-1.902990952E-2,4.995451748E-2,5.355498472E-2
1.470237646E1,-1.289196391E-2,-1.133658171E-2,3.447752237E-2,3.851519658E-2
1.471236346E1,1.631697048E-2,2.467525005E-4,2.087631404E-2,2.649763953E-2
1.472235046E1,-2.599157707E-2,5.645632893E-3,3.171529770E-3,2.678607568E-2
1.473233746E1,-4.752735654E-2,4.316706955E-3,1.071560740E-2,4.891122387E-2
1.474232446E1,-2.631061577E-2,1.294675872E-2,4.923355579E-3,2.973392833E-2
1.475231146E1,-2.483476941E-3,1.553985268E-2,3.074758351E-2,3.454082469E-2
1.476229846E1,5.952428989E-3,1.149533361E-2,3.848988175E-2,4.060843635E-2
1.477228546E1,-1.419137511E-4,2.226955935E-2,4.969724000E-2,5.445887509E-2
1.478227246E1,3.531284281E-3,3.627100959E-2,3.439449191E-2,5.011025024E-2
1.479225946E1,-5.026609185E-3,4.323021948E-2,-2.543714225E-2,5.040998792E-2
1.480224646E1,-1.118919533E-3,2.469220698E-2,-6.115719795E-2,6.596332260E-2
1.481223346E1,1.821786831E-3,2.124234974E-2,-5.927030146E-2,6.298829229E-2
1.482222046E1,-4.025337459E-3,2.455815956E-2,-2.777018130E-2,3.728926805E-2
1.483220746E1,-2.199029999E-2,2.366514355E-3,3.086101949E-2,3.796809460E-2
1.484219446E1,-2.463135025E-3,5.302839875E-3,8.931797326E-2,8.950914753E-2
1.485218146E1,-7.927467688E-3,3.097416312E-2,1.003171706E-1,1.052890224E-1
1.486216946E1,-4.920130474E-3,1.322669417E-2,9.911264420E-2,1.001122838E-1
1.487215646E1,1.902647428E-3,-1.170539483E-2,7.647690296E-2,7.739091046E-2
1.488214346E1,4.289682769E-2,4.473412335E-3,5.752256870E-2,7.189572417E-2
1.489213046E1,2.999836789E-2,6.186500341E-3,5.303249180E-2,6.124230604E-2
1.490211746E1,3.016438770E-2,2.798608974E-2,3.277422845E-2,5.260476742E-2
1.491210446E1,-3.225077474E-3,7.551386654E-3,5.907091141E-2,5.963888949E-2
1.492209146E1,6.873255819E-3,1.290626675E-2,6.686875820E-2,6.844884360E-2
1.493207846E1,1.977353831E-2,6.486170143E-3,6.232897997E-2,6.571122404E-2
1.494206546E1,1.783103845E-3,-1.203196183E-2,3.764729798E-2,3.956345043E-2
1.495205246E1,1.602666079E-2,-2.231779888E-2,4.282851577E-2,5.088437644E-2
1.496203946E1,-1.057004828E-2,-2.588255391E-2,2.354030550E-2,3.654830366E-2
1.497202646E1,-1.433563689E-2,-1.236042917E-2,2.900277436E-2,3.463309999E-2
1.498201346E1,1.923578633E-3,-9.399399161E-4,2.249482334E-2,2.259647580E-2
1.499200046E1,8.476690259E-3,-2.103784338E-2,5.604322314E-2,6.045897776E-2
1.500198746E1,-7.020614790E-3,1.242387146E-3,6.563616514E-2,6.602225937E-2
1.501197446E1,-3.450273849E-2,-1.447916776E-2,8.956647992E-2,9.706822131E-2
1.502196146E1,-1.446939195E-2,-2.357699677E-2,1.091207385E-1,1.125725262E-1
1.503194846E1,1.188595503E-2,-7.983934432E-3,8.718900204E-2,8.835689680E-2
1.504193546E1,3.743647845E-2,-4.320946187E-3,1.026654124E-2,3.905844804E-2
1.505192246E1,4.141940989E-2,-2.980895922E-2,-2.676972270E-2,5.762603247E-2
1.506190946E1,2.107130955E-2,-3.192477420E-2,-1.460868359E-2,4.094636651E-2
1.507189646E1,1.538331175E-2,2.929308861E-3,2.250067055E-2,2.741363358E-2
1.508188346E1,4.935689550E-3,2.054404601E-2,2.530908823E-2,3.296920995E-2
1.509187046E1,9.032486379E-3,-5.773540735E-3,4.975395799E-3,1.181838171E-2
1.510185746E1,2.691488896E-2,-2.129234344E-2,7.864505053E-3,3.520831687E-2
1.511184446E1,5.261158364E-2,-9.023130834E-3,2.455538213E-2,5.875680739E-2
1.512183246E1,3.388635060E-2,-1.795387566E-3,3.956576943E-2,5.212444997E-2
1.513181946E1,1.873316333E-2,-1.684553593E-2,1.450167954E-2,2.906892152E-2
1.514180646E1,4.045881285E-2,-2.639360055E-2,-2.165633261E-2,5.293896892E-2
1.515179346E1,5.574044701E-2,-1.989368945E-3,-3.086160421E-2,6.374475379E-2
1.516178046E1,6.397119789E-2,-4.186167866E-3,-6.289849877E-3,6.441583946E-2
1.517176746E1,6.493152997E-2,3.482309282E-3,-1.476421952E-3,6.504160118E-2
1.518175446E1,4.311607087E-2,2.743952125E-3,1.056533396E-2,4.447641085E-2
1.519174146E1,3.915545021E-2,-1.712064743E-2,5.235713840E-2,6.758354675E-2
1.520172846E1,7.200781208E-2,-3.030641109E-2,5.385753393E-2,9.489066084E-2
1.521171546E1,5.951036621E-2,-2.872240037E-2,2.577394187E-2,7.092782281E-2
1.522170246E1,2.811447266E-2,-2.208098665E-2,-1.894088566E-2,4.045677563E-2
1.523168946E1,2.043287583E-2,-3.662330434E-2,-2.042373955E-2,4.664652155E-2
1.524167646E1,2.567314136E-2,4.573107362E-3,7.232421041E-3,2.706162250E-2
1.525166346E1,2.824648269E-2,1.191165537E-2,1.883095801E-2,3.597716356E-2
1.526165046E1,3.052128713E-2,5.464076847E-3,1.297204792E-2,3.361069965E-2
1.527163746E1,5.017680761E-2,1.074484348E-2,4.674790442E-2,6.941563405E-2
1.528162446E1,6.718449871E-2,-2.001355737E-3,7.397254050E-2,9.994848193E-2
1.529161146E1,5.544008742E-2,-1.086310342E-2,1.048382378E-1,1.190910005E-1
1.530159846E1,6.403097197E-2,-5.269803107E-3,1.106170410E-1,1.279213272E-1
1.531158546E1,5.411984551E-2,9.615599960E-3,1.070163256E-1,1.203075699E-1
1.532157246E1,6.440887569E-2,1.490513742E-2,8.251590729E-2,1.057333502E-1
1.533156017E1,6.913100939E-2,-8.020771891E-3,9.322859108E-2,1.163400165E-1
1.534154717E1,5.734185319E-2,1.498378247E-2,9.633346260E-2,1.131049861E-1
1.535153417E1,3.676303452E-2,3.008874848E-2,9.271695971E-2,1.041791155E-1
1.536152117E1,1.134602861E-2,3.597835645E-2,5.752490759E-2,6.879163824E-2
1.537150817E1,1.192713222E-2,3.947689176E-2,3.713040411E-2,5.549187666E-2
1.538149517E1,1.191023924E-2,4.567391708E-2,2.193173647E-2,5.204768549E-2
1.539148217E1,2.066319217E-2,3.011754602E-2,2.059974074E-3,3.658247644E-2
1.540146917E1,1.098501787E-2,2.510823637E-2,6.754703522E-3,2.822623196E-2
1.541145617E1,-1.142279159E-2,5.371398479E-3,4.262093961E-2,4.445083332E-2
1.542144417E1,-1.253581823E-2,2.047987282E-3,4.917566836E-2,5.078963821E-2
1.543143117E1,2.226711083E-3,-1.393113747E-2,3.490436912E-2,3.764770666E-2
1.544141817E1,3.535916372E-2,-3.491489410E-2,1.547407150E-2,5.204581807E-2
1.545140517E1,2.178627784E-2,-5.312253892E-2,1.773694396E-2,6.009363714E-2
1.546139217E1,3.148031272E-2,-3.242178753E-2,2.796255469E-2,5.314213828E-2
1.547137917E1,1.744459231E-2,-2.665365547E-2,3.367996216E-4,3.185662545E-2
1.548136617E1,2.420697031E-2,-3.634205326E-2,-1.485485137E-2,4.612362579E-2
1.549135317E1,4.948387144E-2,-2.587290600E-2,-6.240733266E-3,5.618725433E-2
1.550134017E1,5.329139555E-2,-2.036746010E-2,-3.869044125E-2,6.893298568E-2
1.551132717E1,4.078058330E-2,-2.969128400E-2,-4.948440135E-2,7.066352876E-2
1.552131417E1,2.431038380E-2,-3.403094128E-2,-1.303461313E-2,4.380640209E-2
1.553130117E1,1.481047648E-2,-3.893792465E-2,-2.157154799E-2,4.691315245E-2
1.554128817E1,3.446155217E-2,-2.756070480E-2,-4.891020477E-2,6.587411599E-2
1.555127517E1,2.865514825E-2,-7.939787954E-3,-6.811129153E-2,7.431894636E-2
1.556126217E1,2.141189159E-2,-7.788345069E-3,-8.593302011E-2,8.890225738E-2
1.557124917E1,8.817610340E-3,-2.795056790E-2,-6.688922346E-2,7.302843770E-2
1.558123617E1,1.445755133E-2,-5.657049581E-2,-1.105825424E-2,5.942665037E-2
1.559122317E1,-6.127342964E-3,-5.686548784E-2,4.633742988E-2,7.360968311E-2
1.560121017E1,-1.624129929E-2,-4.727634653E-2,6.987305760E-2,8.591319412E-2
1.561119717E1,-3.070361062E-2,-3.196395054E-2,5.308687091E-2,6.915650152E-2
1.562118417E1,-2.775961063E-2,-2.372858584E-2,6.285698354E-2,7.269554421E-2
1.563117117E1,-2.127134828E-2,7.473326325E-3,5.977316201E-2,6.388389281E-2
1.564115817E1,-1.714472151E-2,2.811048925E-3,5.815465271E-2,6.069437457E-2
1.565114517E1,-1.088756123E-2,8.058924973E-4,5.936268747E-2,6.035823983E-2
1.566113217E1,-1.082485897E-2,9.372355789E-3,6.504501164E-2,6.660234353E-2
1.567111917E1,1.635402264E-3,5.146573037E-3,5.125026047E-2,5.153397863E-2
1.568110617E1,1.004597330E-2,1.053142011E-2,2.801985741E-2,3.157443267E-2
1.569109317E1,2.596419565E-3,1.307057351E-2,2.068043232E-2,2.460206429E-2
1.570108017E1,1.175716097E-2,-4.546063989E-3,4.676135302E-2,4.843058608E-2
1.571106717E1,6.864484996E-3,-3.032658398E-3,7.589335084E-2,7.626348322E-2
1.572105517E1,3.302240621E-2,-2.732754707E-2,1.001177806E-1,1.089075026E-1
1.573104217E1,6.016495286E-2,-3.270479277E-2,1.354302853E-1,1.517589774E-1
1.574102917E1,6.885361383E-2,-4.142869234E-2,1.445998889E-1,1.654275810E-1
1.575101617E1,4.385430926E-2,-4.006629109E-2,1.365687382E-1,1.489279302E-1
1.576100317E1,6.190435334E-2,-1.518960446E-2,1.001207042E-1,1.186887882E-1
1.577099017E1,4.981401986E-2,-9.441791475E-4,3.343964159E-2,6.000448049E-2
1.578097717E1,2.147218186E-2,1.715295330E-2,-1.082787395E-2,2.953847076E-2
1.579096417E1,1.124264253E-2,1.779161543E-2,-3.931667805E-3,2.141019856E-2
1.580095117E1,1.275095008E-2,2.952244565E-2,7.800770402E-3,3.309098886E-2
1.581093817E1,3.011392806E-2,3.174073309E-2,4.172046840E-2,6.045593671E-2
1.582092517E1,2.410742146E-2,-3.290666789E-3,5.920598209E-2,6.401050361E-2
1.583091217E1,6.964344475E-3,-2.135213122E-2,7.564776778E-2,7.891134501E-2
1.584089917E1,-8.115834827E-3,-2.538071662E-2,5.781785309E-2,6.366279673E-2
1.585088617E1,-1.840566443E-3,-7.659413964E-3,3.427637815E-2,3.516993612E-2
1.586087317E1,1.777955554E-3,8.205836266E-3,1.432275474E-2,1.660235460E-2
1.587086017E1,-7.651264407E-4,8.252760172E-3,2.704980433E-2,2.829108310E-2
1.588084717E1,1.985611196E-2,-1.114493921E-2,2.877063990E-2,3.669093311E-2
1.589083417E1,2.922012633E-2,-8.807222396E-3,7.126644909E-2,7.752605830E-2
