Time (s),Gyroscope x (rad/s),Gyroscope y (rad/s),Gyroscope z (rad/s),Absolute (rad/s)
0.00,0.09,-0.06,0.12,0.16
0.01,0.06,-0.02,0.10,0.12
0.02,0.04,0.03,0.06,0.08
0.03,0.02,0.06,0.02,0.06
0.04,0.01,0.08,-0.02,0.08
0.05,-0.02,0.06,-0.05,0.08
0.06,-0.04,0.02,-0.05,0.07
0.07,-0.04,-0.02,-0.05,0.07
0.08,-0.03,-0.04,-0.04,0.06
0.09,-0.01,-0.03,-0.03,0.04
0.10,0.00,-0.04,-0.02,0.04
0.11,-0.01,-0.03,-0.01,0.04
0.12,-0.02,-0.03,0.00,0.04
0.13,-0.03,-0.04,0.00,0.05
0.14,-0.03,-0.06,0.00,0.07
0.15,-0.03,-0.07,0.01,0.07
0.16,-0.03,-0.06,0.02,0.07
0.17,-0.04,-0.03,0.03,0.06
0.18,-0.04,-0.02,0.05,0.07
0.19,-0.04,-0.06,0.04,0.08
0.20,-0.02,-0.10,0.03,0.10
0.21,0.01,-0.11,0.02,0.11
0.22,0.03,-0.11,0.01,0.11
0.23,0.04,-0.10,0.01,0.11
0.24,0.05,-0.08,0.02,0.10
0.25,0.04,-0.05,0.04,0.07
0.26,0.03,-0.03,0.05,0.07
0.27,0.01,-0.02,0.07,0.07
0.28,0.00,-0.03,0.09,0.10
0.29,-0.01,-0.06,0.11,0.13
0.30,-0.01,-0.11,0.14,0.18
0.31,-0.01,-0.17,0.14,0.22
0.32,0.00,-0.18,0.12,0.21
0.33,0.02,-0.15,0.10,0.17
0.34,0.04,-0.08,0.06,0.11
0.35,0.06,-0.01,0.05,0.08
0.36,0.06,0.06,0.05,0.09
0.37,0.06,0.09,0.06,0.12
0.38,0.05,0.09,0.07,0.12
0.39,0.04,0.06,0.08,0.11
0.40,0.05,0.03,0.09,0.11
0.41,0.06,0.01,0.10,0.12
0.42,0.08,-0.02,0.10,0.13
0.43,0.11,-0.03,0.09,0.14
0.44,0.13,-0.02,0.07,0.15
0.45,0.13,0.00,0.06,0.15
0.46,0.13,0.03,0.06,0.14
0.47,0.11,0.05,0.05,0.13
0.48,0.09,0.07,0.06,0.13
0.49,0.05,0.06,0.07,0.11
0.50,0.01,0.04,0.08,0.09
0.51,-0.01,0.02,0.09,0.09
0.52,-0.01,0.00,0.09,0.09
0.53,-0.01,-0.02,0.08,0.08
0.54,0.01,-0.04,0.06,0.07
0.55,0.03,-0.05,0.04,0.07
0.56,0.04,-0.06,0.03,0.08
0.57,0.04,-0.05,0.02,0.07
0.58,0.04,-0.04,0.03,0.06
0.59,0.02,-0.04,0.03,0.05
0.60,0.01,-0.03,0.05,0.06
0.61,0.01,-0.03,0.06,0.07
0.62,0.03,-0.02,0.06,0.07
0.63,0.04,0.01,0.06,0.08
0.64,0.04,0.04,0.05,0.08
0.65,0.02,0.06,0.03,0.07
0.66,-0.01,0.03,0.01,0.03
0.67,-0.06,-0.03,-0.01,0.07
0.68,-0.09,-0.08,-0.03,0.13
0.69,-0.09,-0.12,-0.05,0.16
0.70,-0.05,-0.12,-0.06,0.14
0.71,-0.01,-0.07,-0.06,0.09
0.72,0.04,0.01,-0.06,0.07
0.73,0.07,0.08,-0.05,0.12
0.74,0.08,0.12,-0.04,0.15
0.75,0.08,0.15,-0.02,0.17
0.76,0.08,0.12,-0.02,0.15
0.77,0.08,0.07,-0.03,0.11
0.78,0.08,0.00,-0.05,0.09
0.79,0.07,-0.08,-0.07,0.13
0.80,0.07,-0.12,-0.11,0.18
0.81,0.08,-0.11,-0.14,0.20
0.82,0.09,-0.05,-0.16,0.20
0.83,0.09,0.04,-0.16,0.19
0.84,0.09,0.12,-0.14,0.20
0.85,0.07,0.17,-0.10,0.21
0.86,0.07,0.21,-0.04,0.22
0.87,0.06,0.18,0.01,0.19
0.88,0.06,0.11,0.05,0.14
0.89,0.07,0.04,0.08,0.12
0.90,0.08,-0.02,0.10,0.13
0.91,0.08,-0.06,0.11,0.15
0.92,0.09,-0.08,0.11,0.16
0.93,0.10,-0.07,0.09,0.15
0.94,0.11,-0.04,0.07,0.14
0.95,0.12,0.00,0.04,0.13
0.96,0.11,0.04,0.01,0.11
0.97,0.07,0.07,-0.01,0.10
0.98,0.02,0.08,-0.01,0.08
0.99,-0.04,0.06,0.00,0.07
1.00,-0.09,0.02,0.01,0.09
1.01,-0.10,-0.02,0.03,0.11
1.02,-0.09,-0.04,0.06,0.12
1.03,-0.07,-0.06,0.08,0.12
1.04,-0.05,-0.07,0.09,0.12
1.05,-0.02,-0.06,0.10,0.12
1.06,0.00,-0.04,0.10,0.11
1.07,-0.01,-0.01,0.11,0.11
1.08,-0.03,0.02,0.10,0.11
1.09,-0.05,0.03,0.07,0.09
1.10,-0.06,0.03,0.02,0.07
1.11,-0.08,0.00,-0.02,0.08
1.12,-0.11,-0.03,-0.04,0.12
1.13,-0.13,-0.05,-0.05,0.14
1.14,-0.14,-0.06,-0.04,0.15
1.15,-0.13,-0.04,-0.03,0.14
1.16,-0.10,-0.02,-0.01,0.11
1.17,-0.06,0.01,0.00,0.06
1.18,-0.02,0.01,0.00,0.02
1.19,0.02,-0.01,0.00,0.02
1.20,0.05,-0.03,0.00,0.06
1.21,0.06,-0.05,-0.01,0.08
1.22,0.04,-0.09,-0.03,0.11
1.23,0.01,-0.11,-0.06,0.12
1.24,-0.03,-0.11,-0.07,0.13
1.25,-0.06,-0.11,-0.08,0.15
1.26,-0.09,-0.09,-0.10,0.16
1.27,-0.12,-0.08,-0.09,0.17
1.28,-0.13,-0.07,-0.07,0.16
1.29,-0.12,-0.04,-0.04,0.14
1.30,-0.10,-0.03,-0.01,0.10
1.31,-0.05,-0.04,0.01,0.07
1.32,-0.01,-0.06,0.02,0.06
1.33,0.01,-0.06,0.03,0.07
1.34,0.03,-0.05,0.04,0.07
1.35,0.04,-0.02,0.04,0.06
1.36,0.03,0.01,0.05,0.06
1.37,0.02,0.04,0.04,0.06
1.38,0.01,0.05,0.03,0.06
1.39,0.00,0.04,0.01,0.04
1.40,0.01,0.02,-0.02,0.03
1.41,0.02,0.01,-0.04,0.05
1.42,0.04,0.01,-0.05,0.07
1.43,0.05,0.02,-0.05,0.07
1.44,0.06,0.05,-0.02,0.08
1.45,0.07,0.06,0.00,0.09
1.46,0.08,0.06,0.02,0.10
1.47,0.09,0.06,0.02,0.10
1.48,0.08,0.05,0.03,0.10
1.49,0.08,0.05,0.02,0.10
1.50,0.09,0.04,0.00,0.10
1.51,0.10,0.04,-0.03,0.11
1.52,0.11,0.03,-0.05,0.13
1.53,0.12,0.02,-0.07,0.14
1.54,0.12,0.03,-0.08,0.15
1.55,0.13,0.04,-0.09,0.16
1.56,0.13,0.05,-0.09,0.17
1.57,0.13,0.06,-0.10,0.17
1.58,0.13,0.08,-0.09,0.18
1.59,0.14,0.07,-0.08,0.18
1.60,0.15,0.05,-0.07,0.17
1.61,0.17,0.02,-0.06,0.18
1.62,0.17,-0.01,-0.07,0.18
1.63,0.14,-0.01,-0.07,0.16
1.64,0.10,0.01,-0.08,0.13
1.65,0.04,0.01,-0.09,0.10
1.66,0.00,0.02,-0.10,0.11
1.67,-0.01,0.03,-0.12,0.12
1.68,0.00,0.01,-0.12,0.12
1.69,0.03,0.00,-0.12,0.12
1.70,0.05,-0.02,-0.11,0.12
1.71,0.04,-0.04,-0.09,0.10
1.72,0.02,-0.06,-0.06,0.09
1.73,0.01,-0.08,-0.04,0.09
1.74,0.03,-0.06,-0.03,0.08
1.75,0.06,-0.03,-0.03,0.08
1.76,0.10,0.00,-0.04,0.10
1.77,0.12,0.03,-0.05,0.13
1.78,0.12,0.05,-0.05,0.14
1.79,0.11,0.06,-0.06,0.13
1.80,0.08,0.07,-0.06,0.12
1.81,0.05,0.06,-0.05,0.09
1.82,0.04,0.04,-0.05,0.08
1.83,0.07,0.01,-0.05,0.08
1.84,0.11,-0.01,-0.05,0.12
1.85,0.14,-0.01,-0.05,0.15
1.86,0.16,0.01,-0.04,0.17
1.87,0.16,0.04,-0.03,0.17
1.88,0.16,0.08,-0.01,0.18
1.89,0.13,0.11,-0.01,0.17
1.90,0.07,0.12,0.00,0.14
1.91,0.01,0.10,0.00,0.10
1.92,-0.02,0.07,0.00,0.07
1.93,-0.02,0.02,-0.02,0.03
1.94,0.00,-0.03,-0.03,0.04
1.95,0.03,-0.05,-0.04,0.07
1.96,0.05,-0.05,-0.04,0.07
1.97,0.05,-0.04,-0.03,0.07
1.98,0.04,-0.02,-0.01,0.05
1.99,0.04,0.01,0.00,0.04
2.00,0.05,0.02,0.01,0.05
2.01,0.06,0.01,0.01,0.06
2.02,0.06,0.00,0.01,0.07
2.03,0.06,0.00,0.01,0.06
2.04,0.03,-0.01,0.01,0.03
2.05,0.00,-0.01,0.00,0.01
2.06,-0.01,0.00,-0.02,0.02
2.07,-0.01,0.02,-0.03,0.04
2.08,0.00,0.04,-0.04,0.06
2.09,0.02,0.06,-0.05,0.08
2.10,0.03,0.08,-0.04,0.10
2.11,0.03,0.09,-0.03,0.10
2.12,0.01,0.07,-0.02,0.07
2.13,-0.01,0.04,0.00,0.04
2.14,-0.02,0.00,0.02,0.03
2.15,-0.01,-0.03,0.03,0.04
2.16,0.00,-0.04,0.04,0.06
2.17,0.01,-0.04,0.04,0.06
2.18,0.00,-0.02,0.04,0.05
2.19,0.00,-0.01,0.03,0.03
2.20,-0.01,0.01,0.02,0.02
2.21,-0.02,0.02,0.01,0.03
2.22,-0.03,0.03,0.01,0.05
2.23,-0.04,0.03,0.02,0.05
2.24,-0.04,0.02,0.03,0.05
2.25,-0.04,0.00,0.03,0.05
2.26,-0.05,-0.02,0.03,0.06
2.27,-0.05,-0.02,0.03,0.06
2.28,-0.04,-0.02,0.02,0.04
2.29,-0.02,-0.01,0.01,0.02
2.30,0.00,-0.02,-0.01,0.02
2.31,0.02,-0.02,-0.02,0.03
2.32,0.03,-0.02,-0.02,0.04
2.33,0.02,-0.02,0.00,0.03
2.34,0.02,-0.02,0.02,0.03
2.35,0.03,-0.02,0.02,0.04
2.36,0.03,-0.01,0.02,0.03
2.37,0.02,-0.01,0.01,0.02
2.38,0.00,0.00,0.00,0.00
2.39,0.00,0.02,-0.01,0.02
2.40,0.00,0.03,-0.02,0.04
2.41,0.00,0.04,-0.02,0.04
2.42,0.02,0.04,-0.02,0.04
2.43,0.04,0.03,-0.02,0.06
2.44,0.06,0.03,-0.03,0.07
2.45,0.07,0.02,-0.03,0.07
2.46,0.07,0.01,-0.03,0.08
2.47,0.07,0.02,-0.03,0.08
2.48,0.05,0.04,-0.02,0.07
2.49,0.03,0.06,-0.02,0.07
2.50,0.01,0.08,-0.02,0.08
2.51,0.00,0.07,-0.01,0.07
2.52,0.02,0.05,-0.01,0.05
2.53,0.03,0.01,-0.01,0.03
2.54,0.04,-0.01,0.00,0.04
2.55,0.05,-0.03,0.00,0.05
2.56,0.05,-0.03,-0.01,0.05
2.57,0.04,-0.02,-0.01,0.05
2.58,0.04,0.00,-0.02,0.05
2.59,0.04,0.02,-0.01,0.05
2.60,0.04,0.02,-0.02,0.05
2.61,0.04,0.01,-0.01,0.04
2.62,0.02,0.01,0.00,0.02
2.63,0.01,0.02,0.00,0.02
2.64,0.01,0.03,0.00,0.03
2.65,-0.01,0.03,0.00,0.04
2.66,-0.01,0.04,0.00,0.04
2.67,-0.01,0.04,0.00,0.05
2.68,-0.01,0.03,0.01,0.04
2.69,-0.01,0.01,0.03,0.03
2.70,-0.01,-0.01,0.04,0.04
2.71,0.00,-0.03,0.04,0.05
2.72,0.01,-0.04,0.04,0.05
2.73,0.01,-0.03,0.03,0.05
2.74,-0.01,-0.02,0.04,0.04
2.75,-0.02,0.00,0.05,0.05
2.76,-0.04,0.02,0.05,0.07
2.77,-0.04,0.03,0.05,0.07
2.78,-0.02,0.03,0.03,0.05
2.79,0.00,0.02,0.01,0.02
2.80,0.01,0.01,0.00,0.01
2.81,0.01,-0.01,-0.01,0.02
2.82,0.01,-0.03,-0.01,0.03
2.83,0.00,-0.04,0.00,0.04
2.84,-0.02,-0.02,0.00,0.03
2.85,-0.03,0.01,0.02,0.03
2.86,-0.04,0.02,0.02,0.05
2.87,-0.04,0.03,0.02,0.06
2.88,-0.03,0.04,0.02,0.06
2.89,-0.01,0.04,0.02,0.05
2.90,0.01,0.02,0.02,0.03
2.91,0.03,0.01,0.01,0.03
2.92,0.03,0.00,0.00,0.03
2.93,0.01,0.00,0.01,0.01
2.94,-0.03,0.00,0.01,0.03
2.95,-0.05,0.01,0.00,0.05
2.96,-0.05,0.03,0.01,0.06
2.97,-0.06,0.05,0.01,0.08
2.98,-0.04,0.06,0.02,0.08
2.99,-0.03,0.05,0.03,0.06
3.00,0.00,0.03,0.03,0.04
3.01,0.01,0.01,0.04,0.04
3.02,0.02,0.00,0.04,0.05
3.03,0.02,-0.01,0.04,0.05
3.04,0.01,-0.01,0.04,0.04
3.05,0.00,0.01,0.04,0.04
3.06,-0.03,0.04,0.04,0.06
3.07,-0.05,0.05,0.03,0.08
3.08,-0.06,0.05,0.02,0.08
3.09,-0.05,0.05,0.01,0.07
3.10,-0.03,0.04,0.00,0.05
3.11,-0.01,0.03,0.00,0.03
3.12,0.00,0.01,-0.01,0.01
3.13,0.00,-0.02,0.00,0.02
3.14,-0.02,-0.04,0.01,0.05
3.15,-0.04,-0.08,0.02,0.09
3.16,-0.04,-0.06,0.02,0.08
3.17,-0.05,-0.05,0.01,0.07
3.18,-0.05,-0.06,0.01,0.08
3.19,-0.04,-0.05,0.00,0.06
3.20,-0.02,-0.03,-0.01,0.04
3.21,-0.01,-0.01,-0.02,0.03
3.22,0.00,0.00,-0.02,0.02
3.23,0.00,0.01,-0.03,0.03
3.24,0.00,0.01,-0.03,0.03
3.25,-0.02,0.00,-0.03,0.03
3.26,-0.03,-0.01,-0.02,0.04
3.27,-0.03,-0.01,-0.02,0.03
3.28,-0.02,0.00,-0.02,0.02
3.29,0.00,0.01,-0.01,0.01
3.30,0.01,0.00,-0.01,0.01
3.31,0.01,0.01,0.00,0.01
3.32,0.01,0.01,0.01,0.02
3.33,0.01,0.01,0.02,0.03
3.34,0.01,0.01,0.04,0.04
3.35,0.00,0.00,0.05,0.05
3.36,0.00,-0.01,0.04,0.04
3.37,0.00,-0.02,0.03,0.03
3.38,0.00,-0.02,0.01,0.02
3.39,0.00,0.01,0.00,0.01
3.40,0.00,0.03,-0.01,0.03
3.41,-0.02,0.04,-0.02,0.05
3.42,-0.03,0.03,-0.01,0.05
3.43,-0.04,0.01,-0.01,0.04
3.44,-0.04,0.00,0.00,0.04
3.45,-0.03,-0.02,0.00,0.04
3.46,-0.02,-0.03,0.01,0.03
3.47,0.00,-0.03,0.01,0.03
3.48,0.00,-0.01,0.01,0.02
3.49,0.00,0.00,0.02,0.02
3.50,0.00,0.01,0.01,0.01
3.51,0.00,0.01,0.00,0.01
3.52,0.00,0.02,-0.01,0.02
3.53,0.00,0.01,-0.01,0.01
3.54,0.00,-0.01,-0.01,0.02
3.55,0.01,-0.02,-0.01,0.03
3.56,0.02,-0.03,-0.01,0.03
3.57,0.03,-0.03,-0.01,0.04
3.58,0.03,-0.02,-0.01,0.04
3.59,0.02,-0.01,-0.01,0.03
3.60,0.00,0.00,-0.01,0.01
3.61,-0.01,0.00,-0.01,0.01
3.62,-0.01,0.02,0.00,0.02
3.63,0.01,0.02,0.00,0.02
3.64,0.02,0.02,-0.01,0.03
3.65,0.04,0.01,-0.01,0.04
3.66,0.05,-0.01,-0.01,0.05
3.67,0.05,-0.01,-0.01,0.06
3.68,0.05,-0.01,-0.01,0.05
3.69,0.04,0.00,-0.01,0.04
3.70,0.03,0.01,-0.01,0.03
3.71,0.02,0.03,-0.01,0.03
3.72,0.02,0.03,-0.01,0.04
3.73,0.03,0.04,-0.01,0.05
3.74,0.03,0.03,-0.01,0.05
3.75,0.03,0.02,0.00,0.04
3.76,0.04,0.00,0.01,0.04
3.77,0.05,-0.01,0.01,0.05
3.78,0.05,0.01,0.01,0.05
3.79,0.05,0.02,0.00,0.05
3.80,0.04,0.02,-0.02,0.05
3.81,0.03,0.03,-0.03,0.05
3.82,0.03,0.02,-0.05,0.06
3.83,0.03,0.01,-0.06,0.07
3.84,0.05,0.01,-0.07,0.08
3.85,0.05,0.00,-0.06,0.08
3.86,0.04,-0.02,-0.05,0.07
3.87,0.04,-0.03,-0.04,0.06
3.88,0.04,-0.03,-0.04,0.06
3.89,0.05,-0.03,-0.04,0.06
3.90,0.06,-0.01,-0.03,0.07
3.91,0.08,0.00,-0.04,0.08
3.92,0.09,0.01,-0.05,0.10
3.93,0.11,0.01,-0.06,0.12
3.94,0.12,0.01,-0.06,0.13
3.95,0.13,0.02,-0.06,0.14
3.96,0.13,0.03,-0.06,0.14
3.97,0.13,0.04,-0.05,0.15
3.98,0.13,0.04,-0.06,0.15
3.99,0.13,0.05,-0.06,0.15
4.00,0.13,0.08,-0.07,0.16
4.01,0.13,0.07,-0.07,0.17
4.02,0.14,0.07,-0.07,0.17
4.03,0.16,0.07,-0.06,0.19
4.04,0.18,0.06,-0.05,0.19
4.05,0.19,0.05,-0.03,0.19
4.06,0.20,0.03,-0.03,0.21
4.07,0.22,0.03,-0.03,0.22
4.08,0.23,0.03,-0.03,0.23
4.09,0.22,0.03,-0.04,0.23
4.10,0.21,0.04,-0.05,0.22
4.11,0.17,0.05,-0.06,0.19
4.12,0.14,0.05,-0.06,0.16
4.13,0.11,0.04,-0.07,0.14
4.14,0.10,0.04,-0.08,0.13
4.15,0.09,0.03,-0.07,0.12
4.16,0.09,0.01,-0.07,0.12
4.17,0.11,0.01,-0.06,0.12
4.18,0.12,0.02,-0.05,0.13
4.19,0.13,0.03,-0.04,0.14
4.20,0.14,0.03,-0.04,0.15
4.21,0.13,0.02,-0.04,0.14
4.22,0.11,0.02,-0.04,0.12
4.23,0.10,0.04,-0.04,0.11
4.24,0.09,0.06,-0.04,0.11
4.25,0.10,0.07,-0.04,0.13
4.26,0.10,0.09,-0.04,0.14
4.27,0.11,0.08,-0.04,0.14
4.28,0.11,0.06,-0.03,0.13
4.29,0.09,0.03,-0.02,0.10
4.30,0.07,0.00,-0.02,0.07
4.31,0.05,0.00,-0.01,0.05
4.32,0.04,0.02,-0.01,0.05
4.33,0.04,0.05,-0.02,0.07
4.34,0.05,0.07,-0.03,0.09
4.35,0.05,0.07,-0.02,0.09
4.36,0.06,0.05,-0.02,0.08
4.37,0.09,0.02,-0.01,0.09
4.38,0.12,0.01,0.00,0.12
4.39,0.14,0.00,0.00,0.14
4.40,0.16,-0.01,0.00,0.16
4.41,0.15,-0.01,-0.02,0.15
4.42,0.10,-0.01,-0.03,0.11
4.43,0.06,0.01,-0.03,0.06
4.44,0.04,0.04,-0.03,0.06
4.45,0.06,0.06,-0.05,0.09
4.46,0.11,0.05,-0.06,0.13
4.47,0.15,0.02,-0.08,0.17
4.48,0.16,0.00,-0.08,0.18
4.49,0.13,-0.01,-0.07,0.15
4.50,0.08,0.01,-0.05,0.10
4.51,0.05,0.04,-0.02,0.07
4.52,0.05,0.07,0.00,0.09
4.53,0.07,0.09,0.01,0.12
4.54,0.12,0.09,0.00,0.15
4.55,0.16,0.07,-0.02,0.17
4.56,0.18,0.02,-0.05,0.19
4.57,0.17,-0.02,-0.07,0.18
4.58,0.12,-0.07,-0.08,0.16
4.59,0.07,-0.08,-0.07,0.13
4.60,0.04,-0.06,-0.06,0.10
4.61,0.02,-0.02,-0.06,0.07
4.62,0.03,0.02,-0.06,0.07
4.63,0.03,0.04,-0.07,0.08
4.64,0.04,0.02,-0.07,0.08
4.65,0.05,0.01,-0.07,0.09
4.66,0.06,0.00,-0.07,0.09
4.67,0.07,-0.02,-0.06,0.10
4.68,0.09,-0.02,-0.05,0.10
4.69,0.09,0.00,-0.04,0.10
4.70,0.10,0.01,-0.03,0.10
4.71,0.10,0.02,-0.02,0.10
4.72,0.10,0.02,-0.01,0.10
4.73,0.10,0.01,0.01,0.10
4.74,0.10,-0.01,0.01,0.10
4.75,0.10,-0.03,0.01,0.11
4.76,0.11,-0.05,-0.01,0.12
4.77,0.11,-0.05,-0.03,0.12
4.78,0.10,-0.02,-0.05,0.11
4.79,0.07,0.02,-0.05,0.09
4.80,0.03,0.04,-0.05,0.07
4.81,0.01,0.05,-0.05,0.07
4.82,0.02,0.05,-0.06,0.08
4.83,0.04,0.03,-0.07,0.08
4.84,0.07,0.01,-0.07,0.10
4.85,0.10,-0.01,-0.07,0.12
4.86,0.12,-0.02,-0.06,0.13
4.87,0.12,-0.04,-0.04,0.13
4.88,0.10,-0.05,-0.02,0.11
4.89,0.08,-0.04,-0.01,0.09
4.90,0.07,-0.02,-0.01,0.08
4.91,0.07,-0.01,-0.02,0.08
4.92,0.09,0.00,-0.02,0.09
4.93,0.10,0.01,-0.03,0.10
4.94,0.10,0.01,-0.03,0.11
4.95,0.10,0.00,-0.04,0.10
4.96,0.07,-0.02,-0.04,0.08
4.97,0.04,-0.04,-0.04,0.07
4.98,0.02,-0.04,-0.03,0.06
4.99,0.02,-0.03,-0.03,0.05
5.00,0.04,0.00,-0.04,0.05
5.01,0.06,0.00,-0.04,0.07
5.02,0.08,-0.01,-0.04,0.09
5.03,0.08,-0.02,-0.04,0.09
5.04,0.08,-0.02,-0.04,0.09
5.05,0.08,-0.02,-0.03,0.09
5.06,0.08,-0.01,-0.03,0.09
5.07,0.08,0.01,-0.02,0.08
5.08,0.05,0.03,0.00,0.06
5.09,0.04,0.02,0.01,0.05
5.10,0.04,0.02,0.01,0.04
5.11,0.05,0.00,0.00,0.05
5.12,0.06,-0.03,-0.03,0.07
5.13,0.05,-0.05,-0.05,0.09
5.14,0.04,-0.05,-0.06,0.09
5.15,0.03,-0.03,-0.05,0.07
5.16,0.01,0.02,-0.04,0.04
5.17,0.01,0.05,-0.01,0.05
5.18,0.04,0.07,0.01,0.08
5.19,0.06,0.06,0.02,0.09
5.20,0.08,0.04,0.03,0.10
5.21,0.09,0.01,0.04,0.10
5.22,0.09,-0.02,0.03,0.09
5.23,0.07,-0.05,0.02,0.09
5.24,0.05,-0.05,0.01,0.07
5.25,0.03,-0.03,-0.01,0.05
5.26,0.02,0.02,-0.03,0.04
5.27,0.01,0.08,-0.04,0.09
5.28,0.00,0.13,-0.06,0.14
5.29,-0.01,0.16,-0.06,0.17
5.30,0.00,0.15,-0.07,0.17
5.31,0.03,0.13,-0.07,0.15
5.32,0.07,0.09,-0.04,0.12
5.33,0.12,0.01,-0.01,0.12
5.34,0.17,-0.06,0.02,0.18
5.35,0.20,-0.10,0.05,0.22
5.36,0.19,-0.11,0.06,0.23
5.37,0.15,-0.09,0.05,0.19
5.38,0.12,-0.05,0.03,0.13
5.39,0.08,-0.02,0.00,0.08
5.40,0.06,0.01,-0.04,0.07
5.41,0.05,0.04,-0.07,0.10
5.42,0.06,0.05,-0.09,0.12
5.43,0.09,0.03,-0.11,0.14
5.44,0.12,0.04,-0.11,0.17
5.45,0.13,-0.01,-0.09,0.16
5.46,0.13,-0.03,-0.07,0.15
5.47,0.13,-0.04,-0.05,0.15
5.48,0.12,-0.04,-0.05,0.14
5.49,0.12,-0.04,-0.05,0.14
5.50,0.12,-0.03,-0.05,0.14
5.51,0.12,-0.03,-0.06,0.13
5.52,0.10,-0.02,-0.06,0.12
5.53,0.08,-0.02,-0.04,0.09
5.54,0.07,-0.02,-0.03,0.07
5.55,0.06,-0.01,-0.01,0.07
5.56,0.08,0.00,-0.01,0.08
5.57,0.10,0.02,0.00,0.11
5.58,0.12,0.03,-0.01,0.12
5.59,0.11,0.05,-0.01,0.12
5.60,0.08,0.05,-0.02,0.09
5.61,0.04,0.04,-0.02,0.06
5.62,0.00,0.04,-0.01,0.04
5.63,0.00,0.04,0.00,0.04
5.64,0.01,0.03,0.00,0.04
5.65,0.04,0.05,0.00,0.06
5.66,0.07,0.06,0.00,0.10
5.67,0.09,0.07,0.02,0.12
5.68,0.09,0.08,0.04,0.13
5.69,0.09,0.06,0.05,0.12
5.70,0.09,0.02,0.06,0.11
5.71,0.08,-0.02,0.06,0.10
5.72,0.06,-0.03,0.05,0.08
5.73,0.05,-0.03,0.03,0.06
5.74,0.04,-0.02,0.01,0.05
5.75,0.04,0.00,0.00,0.04
5.76,0.03,0.03,-0.01,0.04
5.77,0.02,0.05,-0.01,0.06
5.78,0.02,0.07,0.00,0.07
5.79,0.02,0.06,0.01,0.07
5.80,0.03,0.04,0.01,0.05
5.81,0.04,0.01,0.01,0.04
5.82,0.06,0.01,0.01,0.06
5.83,0.07,0.00,0.01,0.08
5.84,0.08,0.02,0.01,0.09
5.85,0.08,0.03,0.00,0.09
5.86,0.06,0.04,0.01,0.07
5.87,0.05,0.06,0.02,0.08
5.88,0.05,0.08,0.02,0.09
5.89,0.07,0.05,0.03,0.09
5.90,0.10,0.00,0.05,0.11
5.91,0.13,-0.04,0.07,0.15
5.92,0.13,-0.09,0.09,0.18
5.93,0.14,-0.12,0.11,0.21
5.94,0.13,-0.14,0.12,0.22
5.95,0.10,-0.12,0.09,0.19
5.96,0.11,-0.08,0.07,0.15
5.97,0.09,-0.07,0.03,0.11
5.98,0.06,-0.02,-0.02,0.07
5.99,0.03,0.02,-0.05,0.06
6.00,0.01,0.05,-0.06,0.08
6.01,0.00,0.06,-0.07,0.09
6.02,-0.01,0.06,-0.06,0.09
6.03,-0.01,0.05,-0.04,0.07
6.04,0.00,0.02,-0.04,0.04
6.05,0.02,0.00,-0.03,0.04
6.06,0.04,-0.02,-0.01,0.05
6.07,0.05,-0.02,0.01,0.06
6.08,0.05,-0.02,0.03,0.07
6.09,0.06,-0.03,0.03,0.07
6.10,0.06,-0.03,0.01,0.06
6.11,0.03,-0.02,-0.01,0.04
6.12,0.00,0.00,-0.04,0.04
6.13,-0.01,0.01,-0.06,0.06
6.14,-0.02,0.01,-0.08,0.08
6.15,-0.03,0.02,-0.07,0.08
6.16,-0.02,0.02,-0.05,0.06
6.16,0.00,0.01,-0.03,0.03
6.17,0.03,-0.01,-0.01,0.03
6.18,0.05,-0.01,0.00,0.06
6.19,0.08,-0.01,0.01,0.08
6.20,0.09,-0.02,0.02,0.10
6.21,0.09,-0.02,0.02,0.09
6.22,0.07,-0.01,0.01,0.07
6.23,0.05,0.01,0.00,0.05
6.24,0.05,0.01,-0.01,0.05
6.25,0.05,0.01,-0.03,0.06
6.26,0.08,0.01,-0.04,0.09
6.27,0.11,0.02,-0.05,0.13
6.28,0.13,0.03,-0.04,0.14
6.29,0.13,0.04,-0.03,0.14
6.30,0.12,0.04,-0.01,0.13
6.31,0.12,0.02,0.01,0.12
6.32,0.12,0.01,0.01,0.12
6.33,0.13,0.01,0.02,0.13
6.34,0.13,0.05,0.01,0.14
6.35,0.13,0.06,0.00,0.15
6.36,0.13,0.06,-0.02,0.14
6.37,0.13,0.07,-0.03,0.15
6.38,0.11,0.06,-0.03,0.13
6.39,0.10,0.05,-0.03,0.11
6.40,0.08,0.03,-0.02,0.09
6.41,0.08,0.02,-0.01,0.08
6.42,0.09,-0.01,0.00,0.09
6.43,0.11,-0.04,0.02,0.12
6.44,0.12,-0.06,0.03,0.14
6.45,0.13,-0.05,0.04,0.14
6.46,0.13,-0.04,0.04,0.14
6.47,0.10,-0.05,0.04,0.12
6.48,0.07,-0.04,0.02,0.08
6.49,0.04,-0.02,0.02,0.05
6.50,0.02,-0.01,0.01,0.03
6.51,0.01,0.02,0.00,0.02
6.52,0.00,0.07,-0.02,0.07
6.53,0.00,0.09,-0.02,0.09
6.54,0.02,0.07,-0.03,0.07
6.55,0.03,0.05,-0.03,0.07
6.56,0.04,0.04,-0.01,0.06
6.57,0.04,0.02,0.00,0.04
6.58,0.03,0.00,0.01,0.03
6.59,0.02,-0.01,0.01,0.03
6.60,0.01,-0.01,0.01,0.02
6.61,0.02,0.00,0.00,0.02
6.62,0.03,0.01,0.00,0.03
6.63,0.04,0.02,0.00,0.05
6.64,0.05,0.03,0.00,0.06
6.65,0.05,0.03,0.00,0.06
6.66,0.05,0.03,0.01,0.06
6.67,0.06,0.01,0.01,0.06
6.68,0.06,0.00,0.01,0.06
6.69,0.06,-0.02,0.01,0.07
6.70,0.07,-0.03,-0.01,0.08
6.71,0.07,-0.04,-0.02,0.08
6.72,0.05,-0.02,-0.03,0.07
6.73,0.04,0.00,-0.04,0.06
6.74,0.04,0.03,-0.05,0.07
6.75,0.04,0.05,-0.05,0.08
6.76,0.04,0.05,-0.03,0.07
6.77,0.05,0.04,-0.02,0.07
6.78,0.08,0.02,-0.01,0.08
6.79,0.10,0.01,0.00,0.11
6.80,0.12,0.00,0.01,0.12
6.81,0.11,-0.03,0.01,0.12
6.82,0.11,-0.05,0.00,0.12
6.83,0.11,-0.05,-0.01,0.13
6.84,0.12,-0.03,-0.01,0.12
6.85,0.14,0.00,0.00,0.14
6.86,0.14,-0.01,0.02,0.14
6.87,0.12,-0.02,0.03,0.13
6.88,0.11,0.01,0.04,0.12
6.89,0.09,0.01,0.03,0.10
6.90,0.08,0.00,0.02,0.08
6.91,0.06,0.00,0.01,0.06
6.92,0.06,0.02,0.00,0.06
6.93,0.05,0.03,-0.01,0.06
6.94,0.05,0.04,-0.02,0.07
6.95,0.04,0.04,-0.02,0.06
6.96,0.04,0.02,-0.02,0.05
6.97,0.04,0.01,-0.01,0.04
6.98,0.06,-0.02,0.01,0.07
6.99,0.10,-0.06,0.04,0.12
7.00,0.14,-0.10,0.07,0.19
7.01,0.16,-0.12,0.10,0.23
7.02,0.17,-0.13,0.12,0.24
7.03,0.15,-0.12,0.12,0.23
7.04,0.14,-0.11,0.12,0.21
7.05,0.12,-0.08,0.09,0.17
7.06,0.12,-0.06,0.06,0.15
7.07,0.11,-0.05,0.03,0.13
7.08,0.11,-0.02,-0.01,0.11
7.09,0.11,-0.01,-0.03,0.11
7.10,0.10,0.00,-0.06,0.12
7.11,0.11,0.02,-0.07,0.13
7.12,0.12,0.03,-0.08,0.14
7.13,0.13,0.03,-0.08,0.15
7.14,0.13,0.02,-0.07,0.15
7.15,0.15,0.00,-0.07,0.16
7.16,0.16,0.04,-0.07,0.18
7.17,0.17,0.03,-0.06,0.19
7.18,0.17,-0.03,-0.04,0.18
7.19,0.17,-0.05,-0.02,0.18
7.20,0.20,-0.03,-0.02,0.20
7.21,0.21,-0.04,-0.01,0.22
7.22,0.23,-0.06,-0.02,0.24
7.23,0.25,-0.07,-0.02,0.26
7.24,0.26,-0.07,-0.04,0.27
7.25,0.27,-0.06,-0.06,0.29
7.26,0.29,-0.06,-0.08,0.30
7.27,0.29,-0.06,-0.12,0.32
7.28,0.29,-0.03,-0.15,0.33
7.29,0.29,0.00,-0.16,0.33
7.30,0.28,0.02,-0.16,0.33
7.31,0.28,0.04,-0.15,0.32
7.32,0.29,0.06,-0.14,0.33
7.33,0.32,0.06,-0.11,0.35
7.34,0.37,0.04,-0.11,0.38
7.35,0.43,0.04,-0.09,0.44
7.36,0.47,0.04,-0.08,0.47
7.37,0.49,0.03,-0.05,0.50
7.38,0.50,0.01,-0.03,0.50
7.39,0.51,-0.03,0.00,0.51
7.40,0.52,-0.07,0.01,0.53
7.41,0.55,-0.08,0.01,0.56
7.42,0.58,-0.07,0.00,0.58
7.43,0.60,-0.05,-0.02,0.60
7.44,0.60,0.00,-0.02,0.60
7.45,0.58,0.04,-0.02,0.58
7.46,0.58,0.05,-0.01,0.58
7.47,0.60,0.05,-0.02,0.60
7.48,0.65,0.04,-0.03,0.65
7.49,0.72,0.08,-0.04,0.73
7.50,0.83,0.19,-0.07,0.86
7.51,0.98,0.33,-0.12,1.04
7.52,1.15,0.41,-0.14,1.23
7.53,1.32,0.43,-0.16,1.39
7.54,1.47,0.39,-0.17,1.53
7.55,1.59,0.38,-0.18,1.65
7.56,1.65,0.57,-0.12,1.75
7.57,1.46,0.80,0.05,1.67
7.58,1.37,0.64,0.00,1.51
7.59,1.41,0.43,-0.11,1.47
7.60,1.45,0.55,-0.11,1.55
7.61,1.37,0.56,-0.04,1.48
7.62,1.32,0.37,0.04,1.37
7.63,1.29,0.06,0.11,1.30
7.64,1.29,-0.15,0.18,1.31
7.65,1.30,-0.25,0.24,1.35
7.66,1.28,-0.26,0.28,1.33
7.67,1.17,-0.16,0.31,1.22
7.68,0.99,-0.04,0.31,1.04
7.69,0.77,0.09,0.31,0.83
7.70,0.51,0.15,0.30,0.61
7.71,0.21,0.17,0.30,0.41
7.72,-0.05,0.01,0.26,0.27
7.73,-0.26,-0.19,0.20,0.38
7.74,-0.38,-0.24,0.11,0.46
7.75,-0.39,-0.18,-0.01,0.43
7.76,-0.34,-0.07,-0.14,0.38
7.77,-0.30,0.02,-0.25,0.39
7.78,-0.30,0.09,-0.33,0.45
7.79,-0.34,0.13,-0.36,0.52
7.80,-0.44,0.17,-0.36,0.59
7.81,-0.54,0.19,-0.33,0.66
7.82,-0.60,0.20,-0.31,0.71
7.83,-0.61,0.22,-0.29,0.71
7.84,-0.57,0.22,-0.27,0.67
7.85,-0.53,0.23,-0.24,0.63
7.86,-0.54,0.26,-0.20,0.63
7.87,-0.65,0.27,-0.11,0.71
7.88,-0.84,0.24,0.02,0.88
7.89,-1.06,0.07,0.19,1.08
7.90,-1.22,-0.17,0.34,1.27
7.91,-1.29,-0.40,0.46,1.43
7.92,-1.30,-0.57,0.50,1.50
7.93,-1.26,-0.58,0.48,1.47
7.94,-1.24,-0.49,0.39,1.39
7.95,-1.25,-0.34,0.28,1.32
7.96,-1.28,-0.21,0.18,1.31
7.97,-1.30,-0.10,0.08,1.31
7.98,-1.28,0.03,-0.02,1.28
7.99,-1.23,0.13,-0.11,1.24
8.00,-1.17,0.20,-0.18,1.20
8.01,-1.13,0.27,-0.23,1.19
8.02,-1.10,0.33,-0.28,1.18
8.03,-1.06,0.34,-0.30,1.15
8.04,-1.00,0.30,-0.32,1.09
8.05,-0.90,0.27,-0.33,0.99
8.06,-0.75,0.23,-0.32,0.85
8.07,-0.58,0.19,-0.30,0.68
8.08,-0.43,0.16,-0.26,0.52
8.09,-0.29,0.13,-0.21,0.38
8.10,-0.18,0.12,-0.15,0.26
8.11,-0.11,0.12,-0.08,0.18
8.12,-0.07,0.11,0.02,0.13
8.13,-0.06,0.05,0.11,0.13
8.14,-0.06,-0.02,0.17,0.19
8.15,-0.06,-0.08,0.22,0.24
8.16,-0.05,-0.14,0.23,0.28
8.17,-0.01,-0.17,0.22,0.28
8.18,0.06,-0.16,0.17,0.24
8.19,0.13,-0.13,0.09,0.21
8.20,0.17,-0.10,0.02,0.20
8.21,0.17,-0.07,-0.05,0.20
8.22,0.13,-0.06,-0.11,0.18
8.23,0.05,-0.07,-0.13,0.16
8.24,-0.05,-0.08,-0.14,0.17
8.25,-0.15,-0.06,-0.14,0.22
8.26,-0.23,0.02,-0.14,0.27
8.27,-0.29,0.08,-0.14,0.33
8.28,-0.33,0.10,-0.14,0.37
8.29,-0.34,0.12,-0.15,0.39
8.30,-0.31,0.14,-0.16,0.38
8.31,-0.27,0.13,-0.17,0.35
8.32,-0.22,0.12,-0.17,0.31
8.33,-0.21,0.06,-0.15,0.27
8.34,-0.21,-0.01,-0.12,0.24
8.35,-0.23,-0.09,-0.08,0.26
8.36,-0.24,-0.14,-0.04,0.28
8.37,-0.25,-0.17,-0.01,0.30
8.38,-0.24,-0.14,0.01,0.28
8.39,-0.20,-0.12,0.02,0.23
8.40,-0.16,-0.09,0.01,0.18
8.41,-0.09,-0.06,-0.01,0.11
8.42,-0.04,-0.08,-0.02,0.10
8.43,-0.02,-0.13,-0.03,0.13
8.44,-0.03,-0.15,-0.03,0.16
8.45,-0.07,-0.15,-0.02,0.17
8.46,-0.10,-0.13,-0.01,0.17
8.47,-0.13,-0.11,-0.01,0.17
8.48,-0.15,-0.08,-0.02,0.17
8.49,-0.16,-0.06,-0.03,0.18
8.50,-0.17,-0.05,-0.05,0.18
8.51,-0.16,-0.06,-0.06,0.18
8.52,-0.15,-0.06,-0.08,0.18
8.53,-0.12,-0.07,-0.08,0.17
8.54,-0.11,-0.08,-0.07,0.15
8.55,-0.09,-0.07,-0.05,0.12
8.56,-0.06,-0.08,-0.03,0.11
8.57,-0.05,-0.10,-0.01,0.11
8.58,-0.04,-0.13,0.01,0.14
8.59,-0.04,-0.15,0.02,0.15
8.60,-0.05,-0.13,0.02,0.14
8.61,-0.07,-0.08,0.02,0.11
8.62,-0.12,-0.04,0.02,0.13
8.63,-0.16,-0.01,0.02,0.16
8.64,-0.17,0.01,0.01,0.17
8.65,-0.17,0.01,-0.01,0.17
8.66,-0.15,0.00,-0.01,0.15
8.67,-0.12,-0.01,-0.02,0.12
8.68,-0.08,-0.02,-0.03,0.09
8.69,-0.06,-0.03,-0.05,0.08
8.70,-0.08,-0.04,-0.05,0.10
8.71,-0.12,-0.06,-0.06,0.15
8.72,-0.17,-0.06,-0.06,0.19
8.73,-0.21,-0.05,-0.06,0.22
8.74,-0.21,-0.03,-0.06,0.22
8.75,-0.20,-0.01,-0.06,0.21
8.76,-0.21,0.01,-0.07,0.22
8.77,-0.21,0.04,-0.10,0.24
8.78,-0.20,0.06,-0.10,0.23
8.79,-0.22,0.03,-0.11,0.25
8.80,-0.23,0.01,-0.11,0.25
8.81,-0.22,-0.05,-0.09,0.24
8.82,-0.22,-0.10,-0.07,0.26
8.83,-0.21,-0.09,-0.04,0.23
8.84,-0.20,-0.09,0.00,0.22
8.85,-0.20,-0.10,0.03,0.22
8.86,-0.18,-0.09,0.05,0.21
8.87,-0.17,-0.07,0.06,0.19
8.88,-0.15,-0.07,0.07,0.18
8.89,-0.14,-0.08,0.05,0.17
8.90,-0.14,-0.07,0.04,0.16
8.91,-0.15,-0.06,0.03,0.16
8.92,-0.16,-0.06,0.02,0.18
8.93,-0.18,-0.06,0.02,0.19
8.94,-0.20,-0.05,0.01,0.21
8.95,-0.21,-0.06,0.02,0.22
8.96,-0.21,-0.05,0.03,0.22
8.97,-0.18,-0.03,0.02,0.19
8.98,-0.15,0.01,0.01,0.15
8.99,-0.13,0.03,0.00,0.13
9.00,-0.15,0.01,0.00,0.15
9.01,-0.19,0.00,-0.01,0.19
9.02,-0.25,0.01,0.00,0.25
9.03,-0.29,-0.03,0.00,0.30
9.04,-0.30,-0.05,0.01,0.30
9.05,-0.27,-0.06,0.00,0.28
9.06,-0.24,-0.03,-0.01,0.24
9.07,-0.21,0.01,0.00,0.21
9.08,-0.21,0.03,0.00,0.22
9.09,-0.25,0.03,0.00,0.25
9.10,-0.28,0.01,0.00,0.28
9.11,-0.30,-0.02,-0.01,0.30
9.12,-0.32,-0.04,-0.02,0.32
9.13,-0.33,-0.08,-0.04,0.34
9.14,-0.34,-0.11,-0.04,0.36
9.15,-0.34,-0.14,-0.03,0.37
9.16,-0.32,-0.14,-0.03,0.35
9.17,-0.30,-0.12,-0.04,0.33
9.18,-0.29,-0.09,-0.03,0.30
9.19,-0.29,-0.09,-0.03,0.30
9.20,-0.31,-0.10,-0.01,0.32
9.21,-0.35,-0.13,0.01,0.37
9.22,-0.37,-0.17,0.02,0.41
9.23,-0.37,-0.17,0.03,0.40
9.24,-0.34,-0.19,0.03,0.39
9.25,-0.31,-0.18,0.01,0.36
9.26,-0.28,-0.15,0.00,0.32
9.27,-0.29,-0.11,-0.01,0.31
9.28,-0.32,-0.11,-0.01,0.34
9.29,-0.34,-0.12,0.00,0.36
9.30,-0.36,-0.12,0.00,0.37
9.31,-0.35,-0.12,0.01,0.37
9.32,-0.36,-0.11,0.00,0.38
9.33,-0.35,-0.07,0.00,0.36
9.34,-0.35,-0.05,0.01,0.35
9.35,-0.35,-0.05,0.00,0.36
9.36,-0.35,-0.06,-0.01,0.35
9.37,-0.35,-0.06,-0.02,0.35
9.38,-0.37,-0.06,-0.03,0.38
9.39,-0.40,-0.03,-0.02,0.40
9.40,-0.43,0.00,-0.01,0.43
9.41,-0.42,0.04,-0.01,0.42
9.42,-0.38,0.03,-0.01,0.38
9.43,-0.32,0.04,-0.01,0.32
9.44,-0.24,0.04,-0.02,0.24
9.45,-0.18,0.04,-0.01,0.19
9.46,-0.16,0.03,-0.01,0.17
9.47,-0.16,0.04,-0.02,0.16
9.48,-0.15,0.06,-0.04,0.17
9.49,-0.14,0.09,-0.07,0.18
9.50,-0.14,0.06,-0.07,0.17
9.51,-0.17,0.04,-0.06,0.19
9.52,-0.19,0.04,-0.05,0.20
9.53,-0.18,0.01,-0.02,0.18
9.54,-0.16,-0.01,0.01,0.16
9.55,-0.13,-0.02,0.03,0.13
9.56,-0.11,-0.02,0.05,0.12
9.57,-0.09,0.00,0.05,0.10
9.58,-0.11,0.03,0.05,0.13
9.59,-0.17,0.03,0.06,0.18
9.60,-0.22,0.04,0.07,0.24
9.61,-0.27,0.04,0.08,0.28
9.62,-0.30,0.03,0.08,0.31
9.63,-0.31,0.06,0.09,0.33
9.64,-0.29,0.05,0.10,0.31
9.65,-0.27,0.02,0.11,0.29
9.66,-0.26,0.01,0.10,0.28
9.67,-0.26,-0.01,0.12,0.28
9.68,-0.25,-0.03,0.12,0.28
9.69,-0.23,-0.04,0.13,0.27
9.70,-0.23,-0.03,0.13,0.27
9.71,-0.23,0.00,0.14,0.27
9.72,-0.22,0.02,0.15,0.27
9.73,-0.23,0.03,0.16,0.28
9.74,-0.26,0.02,0.19,0.32
9.75,-0.27,-0.01,0.20,0.33
9.76,-0.26,-0.04,0.21,0.33
9.77,-0.24,-0.05,0.20,0.31
9.78,-0.21,-0.01,0.19,0.28
9.79,-0.18,0.05,0.17,0.25
9.80,-0.19,0.15,0.17,0.29
9.81,-0.21,0.18,0.19,0.34
9.82,-0.24,0.22,0.21,0.38
9.83,-0.21,0.21,0.23,0.38
9.84,-0.15,0.15,0.25,0.32
9.85,-0.07,0.09,0.25,0.28
9.86,-0.01,0.02,0.24,0.24
9.87,-0.01,-0.04,0.22,0.22
9.88,-0.06,-0.08,0.19,0.22
9.89,-0.13,-0.06,0.13,0.19
9.90,-0.18,0.00,0.06,0.19
9.91,-0.20,0.05,-0.01,0.20
9.92,-0.18,0.07,-0.07,0.20
9.93,-0.12,0.08,-0.12,0.19
9.94,-0.09,0.04,-0.13,0.16
9.95,-0.06,0.01,-0.11,0.12
9.96,-0.03,-0.03,-0.08,0.09
9.97,-0.04,-0.02,-0.08,0.10
9.98,-0.05,0.00,-0.05,0.07
9.99,-0.06,-0.02,-0.02,0.06
10.00,-0.06,-0.03,0.01,0.07
10.01,-0.05,-0.05,0.02,0.07
10.02,-0.04,-0.05,0.02,0.07
10.03,-0.03,-0.05,0.02,0.06
10.04,-0.02,-0.05,0.01,0.05
10.05,-0.01,-0.05,0.00,0.05
10.06,0.00,-0.05,-0.01,0.05
10.07,0.01,-0.04,-0.01,0.05
10.08,-0.01,-0.03,-0.02,0.03
10.09,-0.05,0.00,-0.01,0.05
10.10,-0.12,0.01,0.00,0.12
10.11,-0.16,0.02,0.01,0.16
10.12,-0.18,0.00,0.01,0.18
10.13,-0.16,0.00,0.01,0.16
10.14,-0.11,-0.01,0.02,0.11
10.15,-0.06,-0.01,0.03,0.07
10.16,-0.03,-0.03,0.04,0.05
10.17,-0.03,-0.05,0.03,0.07
10.18,-0.05,-0.06,0.03,0.09
10.19,-0.08,-0.06,0.03,0.11
10.20,-0.09,-0.04,0.01,0.10
10.21,-0.09,-0.01,0.00,0.09
10.22,-0.07,0.01,-0.01,0.07
10.23,-0.04,0.03,-0.03,0.06
10.24,-0.02,0.05,-0.04,0.07
10.25,-0.01,0.07,-0.05,0.08
10.26,-0.05,0.08,-0.06,0.11
10.27,-0.10,0.14,-0.08,0.19
10.28,-0.12,0.16,-0.08,0.22
10.29,-0.12,0.15,-0.07,0.20
10.30,-0.11,0.14,-0.05,0.18
10.31,-0.09,0.09,0.00,0.13
10.32,-0.06,0.02,0.06,0.09
10.33,-0.05,-0.03,0.11,0.13
10.34,-0.05,0.00,0.14,0.15
10.35,-0.07,0.01,0.16,0.17
10.36,-0.10,0.02,0.15,0.18
10.37,-0.15,0.07,0.12,0.20
10.38,-0.18,0.07,0.10,0.22
10.39,-0.19,0.04,0.07,0.21
10.40,-0.19,0.03,0.06,0.20
10.41,-0.17,0.05,0.03,0.18
10.42,-0.13,0.06,0.02,0.15
10.43,-0.10,0.04,0.03,0.12
10.44,-0.08,0.04,0.06,0.11
10.45,-0.06,0.05,0.06,0.10
10.46,-0.05,-0.03,0.07,0.09
10.47,-0.05,-0.04,0.10,0.12
10.48,-0.03,-0.04,0.09,0.10
10.49,-0.03,-0.07,0.09,0.12
10.50,-0.04,-0.06,0.10,0.12
10.51,-0.04,-0.10,0.07,0.13
10.52,-0.06,-0.12,0.05,0.14
10.53,-0.10,-0.14,0.02,0.17
10.54,-0.14,-0.13,-0.01,0.19
10.55,-0.16,-0.12,-0.04,0.20
10.56,-0.16,-0.13,-0.06,0.21
10.57,-0.16,-0.11,-0.06,0.20
10.58,-0.17,-0.14,-0.05,0.22
10.59,-0.16,-0.14,-0.02,0.21
10.60,-0.14,-0.15,0.00,0.20
10.61,-0.12,-0.18,0.03,0.22
10.62,-0.11,-0.18,0.04,0.22
10.63,-0.10,-0.18,0.04,0.21
10.64,-0.08,-0.17,0.01,0.19
10.65,-0.07,-0.12,-0.02,0.14
10.66,-0.07,-0.10,-0.05,0.13
10.67,-0.08,-0.08,-0.07,0.13
10.68,-0.10,-0.04,-0.08,0.13
10.69,-0.11,-0.01,-0.08,0.14
10.70,-0.13,0.01,-0.06,0.14
10.71,-0.14,0.00,-0.03,0.14
10.72,-0.14,-0.04,0.00,0.14
10.73,-0.13,-0.08,0.03,0.15
10.74,-0.10,-0.08,0.04,0.13
10.75,-0.05,-0.07,0.04,0.09
10.76,-0.01,-0.04,0.02,0.05
10.77,0.01,-0.01,0.00,0.02
10.78,0.02,0.01,-0.02,0.03
10.79,0.01,0.03,-0.03,0.04
10.80,-0.01,0.02,-0.02,0.03
10.81,-0.02,0.01,0.00,0.03
10.82,-0.04,-0.02,0.02,0.05
10.83,-0.04,-0.05,0.04,0.08
10.84,-0.03,-0.07,0.05,0.09
10.85,-0.01,-0.07,0.05,0.09
10.86,0.01,-0.05,0.06,0.08
10.87,0.02,-0.02,0.07,0.08
10.88,0.01,-0.01,0.08,0.08
10.89,-0.02,-0.02,0.09,0.09
10.90,-0.06,-0.04,0.09,0.11
10.91,-0.07,-0.06,0.09,0.13
10.92,-0.07,-0.08,0.08,0.13
10.93,-0.04,-0.08,0.07,0.11
10.94,0.00,-0.07,0.08,0.10
10.95,0.03,-0.07,0.09,0.12
10.96,0.06,-0.06,0.11,0.14
10.97,0.04,-0.06,0.13,0.15
10.98,0.00,-0.07,0.14,0.16
10.99,-0.03,-0.10,0.14,0.18
11.00,-0.02,-0.13,0.13,0.19
11.01,0.02,-0.18,0.11,0.21
11.02,0.06,-0.20,0.09,0.23
11.03,0.09,-0.18,0.08,0.21
11.04,0.10,-0.18,0.08,0.22
11.05,0.07,-0.16,0.07,0.18
11.06,0.05,-0.12,0.05,0.14
11.07,0.05,-0.09,0.05,0.11
11.08,0.03,-0.09,0.03,0.09
11.09,0.00,-0.07,0.02,0.07
11.10,-0.02,-0.06,0.01,0.07
11.11,-0.03,-0.04,0.02,0.05
11.12,-0.02,-0.03,0.02,0.05
11.13,-0.02,-0.02,0.03,0.04
11.14,0.00,-0.02,0.03,0.04
11.15,0.00,-0.03,0.03,0.04
11.16,0.00,-0.03,0.02,0.03
11.17,0.01,-0.02,0.00,0.02
11.18,-0.02,0.00,-0.01,0.02
11.19,-0.05,0.03,-0.03,0.07
11.20,-0.09,0.08,-0.05,0.13
11.21,-0.11,0.11,-0.06,0.17
11.22,-0.12,0.10,-0.06,0.17
11.23,-0.12,0.07,-0.04,0.14
11.24,-0.11,0.04,-0.01,0.12
11.25,-0.10,-0.01,0.02,0.10
11.26,-0.06,-0.05,0.04,0.09
11.27,-0.01,-0.08,0.04,0.09
11.28,0.06,-0.09,0.04,0.12
11.29,0.11,-0.11,0.03,0.16
11.30,0.13,-0.10,0.00,0.17
11.31,0.13,-0.09,-0.02,0.16
11.32,0.11,-0.07,-0.04,0.13
11.33,0.07,-0.05,-0.05,0.10
11.34,0.03,-0.02,-0.06,0.07
11.35,0.01,0.00,-0.07,0.07
11.36,0.02,0.03,-0.07,0.08
11.37,0.04,0.02,-0.07,0.08
11.38,0.07,-0.01,-0.05,0.09
11.39,0.09,-0.05,-0.03,0.11
11.40,0.11,-0.08,-0.01,0.14
11.41,0.13,-0.09,0.00,0.16
11.42,0.14,-0.06,0.00,0.16
11.43,0.13,-0.03,0.00,0.13
11.44,0.10,0.00,-0.02,0.10
11.45,0.05,0.04,-0.03,0.07
11.46,0.02,0.06,-0.06,0.08
11.47,0.01,0.08,-0.08,0.12
11.48,0.01,0.08,-0.10,0.13
11.49,0.02,0.07,-0.09,0.12
11.50,0.04,0.06,-0.08,0.11
11.51,0.09,0.05,-0.06,0.12
11.52,0.11,0.04,-0.04,0.12
11.53,0.11,0.02,0.00,0.11
11.54,0.10,0.01,0.03,0.10
11.55,0.09,0.00,0.05,0.10
11.56,0.09,-0.02,0.05,0.10
11.57,0.09,-0.01,0.03,0.10
11.58,0.10,0.00,0.00,0.10
11.59,0.12,0.02,-0.02,0.12
11.60,0.12,0.03,-0.03,0.13
11.61,0.10,0.05,-0.04,0.12
11.62,0.06,0.05,-0.03,0.09
11.63,0.03,0.06,-0.03,0.07
11.64,0.02,0.08,-0.03,0.08
11.65,0.01,0.08,-0.03,0.08
11.66,0.03,0.07,-0.03,0.08
11.67,0.05,0.04,-0.02,0.07
11.68,0.06,0.01,0.00,0.06
11.69,0.07,-0.02,0.02,0.08
11.70,0.08,-0.03,0.05,0.10
11.71,0.09,-0.03,0.07,0.11
11.72,0.07,-0.03,0.06,0.10
11.73,0.04,-0.02,0.04,0.06
11.74,0.00,0.00,0.00,0.01
11.75,-0.02,0.02,-0.04,0.05
11.76,-0.03,0.04,-0.07,0.08
11.77,-0.02,0.03,-0.08,0.09
11.78,0.01,0.02,-0.08,0.08
11.79,0.04,0.01,-0.06,0.07
11.80,0.07,-0.01,-0.02,0.07
11.81,0.09,-0.02,0.01,0.09
11.82,0.10,-0.04,0.03,0.11
11.83,0.10,-0.05,0.04,0.12
11.84,0.09,-0.04,0.04,0.11
11.85,0.07,-0.03,0.03,0.08
11.86,0.05,-0.01,0.01,0.05
11.87,0.03,0.01,-0.01,0.04
11.88,0.04,0.01,-0.02,0.05
11.89,0.06,0.00,-0.03,0.06
11.90,0.08,0.00,-0.03,0.08
11.91,0.07,0.00,-0.03,0.08
11.92,0.05,0.01,-0.01,0.05
11.93,0.02,0.03,0.01,0.04
11.94,0.00,0.03,0.02,0.04
11.95,0.01,0.04,0.01,0.04
11.96,0.02,0.04,0.01,0.05
11.97,0.04,0.05,0.01,0.06
11.98,0.05,0.05,0.00,0.07
11.99,0.04,0.04,0.00,0.06
12.00,0.02,0.03,-0.01,0.03
12.01,0.00,0.04,-0.01,0.04
12.02,-0.01,0.04,-0.01,0.05
12.03,0.00,0.04,0.00,0.04
12.04,0.01,0.02,0.01,0.03
12.05,0.03,0.01,0.02,0.04
12.06,0.04,0.00,0.03,0.05
12.07,0.04,0.00,0.02,0.04
12.08,0.03,0.00,0.01,0.03
12.09,0.00,-0.01,0.00,0.01
12.10,-0.01,-0.01,-0.01,0.02
12.11,0.00,-0.02,-0.03,0.04
12.12,0.02,-0.02,-0.04,0.05
12.13,0.04,-0.01,-0.03,0.05
12.14,0.04,0.00,-0.01,0.05
12.15,0.03,0.00,0.00,0.04
12.16,0.01,0.00,0.02,0.02
12.17,-0.02,0.02,0.02,0.03
12.18,-0.04,0.02,0.01,0.04
12.19,-0.04,0.01,0.00,0.04
12.20,-0.03,-0.01,-0.03,0.04
12.21,0.00,-0.03,-0.04,0.05
12.22,0.02,-0.03,-0.03,0.04
12.23,0.03,-0.03,-0.02,0.05
12.24,0.03,0.00,0.00,0.03
12.25,0.03,0.03,0.02,0.04
12.26,0.04,0.04,0.03,0.06
12.27,0.05,0.04,0.04,0.07
12.28,0.06,0.02,0.04,0.07
12.29,0.08,0.00,0.04,0.08
12.30,0.10,-0.02,0.03,0.10
12.31,0.12,-0.03,0.01,0.12
12.32,0.12,-0.01,0.00,0.12
12.33,0.12,0.02,-0.01,0.12
12.34,0.10,0.05,-0.02,0.12
12.35,0.09,0.08,-0.02,0.12
12.36,0.08,0.09,-0.01,0.12
12.37,0.08,0.08,0.01,0.12
12.38,0.09,0.07,0.03,0.12
12.39,0.11,0.04,0.03,0.13
12.40,0.14,0.03,0.03,0.14
12.41,0.14,0.01,0.02,0.14
12.42,0.11,0.01,0.00,0.11
12.43,0.05,0.01,-0.02,0.06
12.44,0.01,0.02,-0.03,0.04
12.45,-0.02,0.03,-0.05,0.06
12.46,-0.02,0.03,-0.06,0.07
12.47,0.01,0.05,-0.05,0.07
12.48,0.05,0.06,-0.03,0.08
12.49,0.08,0.06,-0.01,0.10
12.50,0.09,0.04,0.02,0.10
12.51,0.10,0.02,0.04,0.10
12.52,0.09,-0.01,0.04,0.10
12.53,0.08,-0.03,0.02,0.09
12.54,0.05,-0.03,0.00,0.06
12.55,0.01,-0.03,-0.03,0.05
12.56,-0.02,-0.02,-0.05,0.05
12.57,-0.02,0.01,-0.06,0.06
12.58,-0.01,0.04,-0.05,0.06
12.59,0.00,0.05,-0.03,0.06
12.60,0.02,0.04,0.00,0.04
12.61,0.04,0.02,0.02,0.05
12.62,0.05,-0.01,0.05,0.07
12.63,0.06,-0.02,0.06,0.08
12.64,0.05,-0.03,0.06,0.08
12.65,0.03,-0.02,0.05,0.06
12.66,0.01,-0.02,0.03,0.04
12.67,-0.01,0.00,0.01,0.02
12.68,-0.03,0.02,-0.01,0.03
12.69,-0.02,0.04,-0.03,0.05
12.70,-0.01,0.06,-0.03,0.06
12.71,-0.01,0.06,-0.01,0.06
12.72,0.01,0.03,0.01,0.04
12.73,0.03,0.00,0.03,0.04
12.74,0.05,-0.01,0.05,0.07
12.75,0.08,-0.02,0.06,0.10
12.76,0.08,-0.01,0.07,0.11
12.77,0.08,0.00,0.06,0.09
12.78,0.06,0.00,0.04,0.07
12.79,0.05,0.02,0.01,0.06
12.80,0.04,0.03,-0.03,0.06
12.81,0.03,0.05,-0.05,0.07
12.82,0.03,0.05,-0.05,0.07
12.83,0.04,0.04,-0.03,0.07
12.84,0.05,0.03,-0.01,0.06
12.85,0.06,0.01,0.01,0.07
12.86,0.07,0.00,0.04,0.08
12.87,0.09,0.00,0.05,0.10
12.88,0.09,0.01,0.06,0.11
12.89,0.09,0.01,0.04,0.10
12.90,0.06,0.01,0.03,0.06
12.91,0.03,0.02,0.00,0.03
12.92,0.02,0.03,-0.01,0.04
12.93,0.02,0.03,-0.01,0.04
12.94,0.04,-0.02,0.02,0.05
12.95,0.06,-0.06,0.05,0.10
12.96,0.08,-0.04,0.07,0.11
12.97,0.12,-0.06,0.10,0.17
12.98,0.14,-0.10,0.10,0.20
12.99,0.15,-0.07,0.10,0.19
13.00,0.12,-0.09,0.08,0.18
13.01,0.07,-0.06,0.05,0.10
13.02,0.02,0.00,0.01,0.02
13.03,-0.03,0.04,-0.03,0.06
13.04,-0.05,0.09,-0.05,0.12
13.05,-0.04,0.10,-0.07,0.13
13.06,-0.01,0.09,-0.06,0.11
13.07,0.03,0.06,-0.03,0.07
13.08,0.06,0.03,0.00,0.07
13.09,0.08,0.01,0.03,0.09
13.10,0.09,0.01,0.05,0.10
13.11,0.08,0.01,0.06,0.10
13.12,0.05,0.02,0.04,0.07
13.13,0.00,0.02,0.02,0.03
13.14,-0.05,0.03,0.00,0.06
13.15,-0.08,0.05,-0.03,0.10
13.16,-0.07,0.06,-0.04,0.10
13.17,-0.04,0.05,-0.04,0.08
13.18,0.01,0.03,-0.03,0.05
13.19,0.05,-0.01,-0.02,0.05
13.20,0.08,-0.04,-0.01,0.09
13.21,0.09,-0.07,0.01,0.12
13.22,0.09,-0.06,0.01,0.11
13.23,0.07,-0.04,0.00,0.08
13.24,0.03,-0.01,-0.01,0.03
13.25,-0.01,0.01,-0.02,0.03
13.26,-0.02,0.04,-0.04,0.06
13.27,-0.03,0.06,-0.04,0.08
13.28,-0.02,0.06,-0.03,0.07
13.29,0.01,0.03,-0.01,0.04
13.30,0.04,0.00,0.00,0.04
13.31,0.06,-0.02,0.01,0.06
13.32,0.06,-0.03,0.03,0.07
13.33,0.05,-0.02,0.03,0.06
13.34,0.04,-0.01,0.03,0.05
13.35,0.02,0.02,0.01,0.03
13.36,0.01,0.04,0.00,0.04
13.37,0.00,0.05,-0.01,0.05
13.38,0.00,0.04,-0.02,0.05
13.38,0.00,0.03,-0.02,0.03
13.39,0.01,0.02,0.00,0.03
13.40,0.02,0.02,0.01,0.03
13.41,0.04,0.01,0.03,0.05
13.42,0.05,0.01,0.04,0.07
13.43,0.06,0.01,0.04,0.07
13.44,0.05,0.00,0.05,0.07
13.45,0.04,0.00,0.04,0.06
13.46,0.03,0.01,0.03,0.04
13.47,0.00,0.01,0.01,0.02
13.48,-0.01,0.03,-0.01,0.03
13.49,-0.01,0.04,-0.02,0.05
13.50,0.01,0.04,-0.03,0.05
13.51,0.03,0.02,-0.02,0.04
13.52,0.05,-0.01,-0.01,0.05
13.53,0.07,-0.02,0.01,0.07
13.54,0.08,-0.03,0.02,0.09
13.55,0.08,-0.03,0.03,0.09
13.56,0.07,-0.02,0.03,0.08
13.57,0.06,-0.01,0.02,0.07
13.58,0.05,0.00,0.00,0.05
13.59,0.05,0.02,-0.01,0.05
13.60,0.04,0.03,-0.01,0.05
13.61,0.03,0.03,-0.02,0.05
13.62,0.03,0.04,-0.03,0.06
13.63,0.04,0.04,-0.03,0.06
13.64,0.05,0.04,-0.02,0.07
13.65,0.06,0.03,-0.01,0.07
13.66,0.08,0.03,-0.01,0.08
13.67,0.09,0.01,-0.01,0.09
13.68,0.09,0.02,0.00,0.09
13.69,0.06,0.01,0.01,0.06
13.70,0.06,0.01,0.00,0.06
13.71,0.05,0.03,0.01,0.06
13.72,0.03,0.02,0.01,0.04
13.73,0.03,0.02,0.01,0.04
13.74,0.04,0.02,0.01,0.05
13.75,0.05,0.01,0.00,0.05
13.76,0.06,0.01,0.00,0.06
13.77,0.07,0.00,0.00,0.07
13.78,0.08,0.00,0.01,0.08
13.79,0.07,0.00,0.01,0.07
13.80,0.05,-0.01,0.01,0.05
13.81,0.03,0.00,0.01,0.03
13.82,0.00,0.02,0.00,0.02
13.83,-0.03,0.03,-0.01,0.04
13.84,-0.04,0.04,-0.02,0.06
13.85,-0.04,0.03,-0.02,0.05
13.86,-0.02,0.02,-0.02,0.04
13.87,-0.01,0.00,-0.02,0.02
13.88,0.01,-0.02,-0.01,0.02
13.89,0.03,-0.03,0.00,0.05
13.90,0.05,-0.04,0.01,0.06
13.91,0.05,-0.03,0.02,0.06
13.92,0.04,-0.03,0.02,0.05
13.93,0.02,-0.02,0.02,0.04
13.94,0.01,0.00,0.01,0.01
13.95,-0.01,0.02,0.01,0.02
13.96,-0.01,0.03,-0.01,0.03
13.97,0.00,0.02,-0.01,0.02
13.98,0.01,0.00,-0.02,0.02
13.99,0.03,-0.02,-0.02,0.04
14.00,0.04,-0.02,-0.01,0.05
14.01,0.06,-0.02,-0.01,0.06
14.02,0.07,-0.02,0.00,0.07
14.03,0.07,-0.01,0.00,0.07
14.04,0.07,0.01,0.00,0.07
14.05,0.05,0.03,0.01,0.06
14.06,0.03,0.03,0.02,0.05
14.07,0.01,0.04,0.03,0.05
14.08,0.00,0.04,0.03,0.05
14.09,0.01,0.03,0.03,0.05
14.10,0.02,0.02,0.03,0.04
14.11,0.04,0.00,0.02,0.05
14.12,0.05,-0.01,0.01,0.06
14.13,0.06,-0.02,0.01,0.06
14.14,0.06,0.00,0.00,0.06
14.15,0.04,0.01,-0.01,0.04
14.16,0.00,0.03,0.00,0.03
14.17,-0.03,0.04,0.00,0.05
14.18,-0.04,0.05,0.00,0.06
14.19,-0.03,0.03,-0.01,0.04
14.20,0.00,0.02,-0.01,0.02
14.21,0.02,0.00,0.00,0.02
14.22,0.04,-0.01,0.01,0.05
14.23,0.05,-0.02,0.03,0.06
14.24,0.06,-0.03,0.05,0.08
14.25,0.06,-0.04,0.07,0.10
14.26,0.06,-0.05,0.08,0.11
14.27,0.04,-0.02,0.06,0.07
14.28,0.01,0.01,0.03,0.03
14.29,-0.01,0.02,-0.01,0.03
14.30,-0.02,0.04,-0.04,0.06
14.31,-0.01,0.04,-0.07,0.08
14.32,0.01,0.04,-0.07,0.08
14.33,0.03,0.02,-0.05,0.06
14.34,0.05,0.00,-0.03,0.06
14.35,0.05,-0.01,0.01,0.05
14.36,0.04,-0.01,0.04,0.05
14.37,0.03,-0.01,0.05,0.06
14.38,0.02,-0.01,0.04,0.05
14.39,0.02,0.01,0.02,0.03
14.40,0.02,0.03,-0.01,0.04
14.41,0.01,0.04,-0.03,0.05
14.42,0.00,0.05,-0.05,0.07
14.43,0.00,0.05,-0.05,0.07
14.44,0.00,0.04,-0.04,0.06
14.45,0.02,0.02,-0.03,0.04
14.46,0.05,0.01,-0.01,0.05
14.47,0.07,-0.01,0.00,0.07
14.48,0.09,-0.03,0.01,0.09
14.49,0.09,-0.02,0.01,0.09
14.50,0.07,0.00,0.02,0.07
14.51,0.04,0.02,0.01,0.05
14.52,0.02,0.04,0.00,0.05
14.53,0.01,0.05,-0.01,0.05
14.54,0.01,0.04,-0.02,0.05
14.55,0.02,0.04,-0.03,0.05
14.56,0.04,0.02,-0.03,0.05
14.57,0.06,0.01,-0.02,0.06
14.58,0.07,0.00,-0.01,0.07
14.59,0.07,0.00,0.00,0.07
14.60,0.06,0.00,0.02,0.06
14.61,0.05,0.01,0.02,0.05
14.62,0.05,0.01,0.01,0.05
14.63,0.05,0.02,-0.01,0.05
14.64,0.05,0.03,-0.02,0.06
14.65,0.04,0.06,-0.03,0.08
14.66,0.02,0.06,-0.03,0.07
14.67,0.01,0.03,-0.03,0.05
14.68,0.01,0.03,-0.03,0.04
14.69,0.02,0.01,-0.02,0.03
14.70,0.04,-0.01,-0.01,0.04
14.71,0.05,-0.01,0.00,0.06
14.72,0.07,-0.03,0.01,0.07
14.73,0.06,-0.03,0.00,0.07
14.74,0.05,-0.04,0.00,0.06
14.75,0.04,-0.02,0.00,0.05
14.76,0.03,-0.02,-0.01,0.03
14.77,0.03,-0.02,-0.01,0.04
14.78,0.05,0.00,-0.02,0.05
14.79,0.05,-0.01,-0.02,0.05
14.80,0.06,-0.01,-0.02,0.06
14.81,0.05,0.01,-0.03,0.06
14.82,0.03,0.02,-0.03,0.05
14.83,0.01,0.04,-0.03,0.05
14.84,0.00,0.04,-0.03,0.05
14.85,0.01,0.04,-0.03,0.05
14.86,0.05,0.04,-0.03,0.07
14.87,0.08,0.03,-0.02,0.09
14.88,0.10,0.04,-0.01,0.11
14.89,0.10,0.06,0.00,0.12
14.90,0.07,0.06,-0.01,0.10
14.91,0.04,0.05,-0.01,0.07
14.92,0.02,0.07,-0.01,0.08
14.93,0.02,0.08,-0.02,0.08
14.94,0.02,0.08,-0.03,0.09
14.95,0.04,0.08,-0.03,0.10
14.96,0.05,0.07,-0.02,0.09
14.97,0.06,0.06,-0.01,0.08
14.98,0.07,0.03,0.00,0.07
14.99,0.07,0.00,0.01,0.07
15.00,0.05,-0.01,0.02,0.05
15.01,0.03,-0.01,0.02,0.04
15.02,0.03,0.00,0.02,0.03
15.03,0.02,0.02,0.01,0.03
15.04,0.02,0.04,0.00,0.04
15.05,0.02,0.04,0.00,0.04
15.06,0.01,0.03,0.00,0.03
15.07,0.01,0.02,0.00,0.02
15.08,0.02,0.00,0.01,0.02
15.09,0.03,-0.02,0.01,0.04
15.10,0.05,-0.02,0.01,0.05
15.11,0.06,-0.02,0.01,0.07
15.12,0.07,-0.02,0.01,0.08
15.13,0.08,0.00,0.01,0.08
15.14,0.07,0.01,0.02,0.08
15.15,0.06,0.02,0.02,0.07
15.16,0.04,0.03,0.03,0.06
15.17,0.03,0.02,0.03,0.05
15.18,0.04,0.02,0.02,0.05
15.19,0.05,0.02,0.02,0.05
15.20,0.05,0.01,0.01,0.06
15.21,0.05,0.00,0.00,0.05
15.22,0.04,-0.01,-0.01,0.04
15.23,0.04,0.00,-0.01,0.04
15.24,0.04,0.00,-0.01,0.04
15.25,0.04,0.01,-0.02,0.05
15.26,0.05,0.01,-0.02,0.06
15.27,0.06,0.03,-0.02,0.07
15.28,0.05,0.03,-0.01,0.06
15.29,0.05,0.02,-0.01,0.06
15.30,0.06,0.02,0.00,0.06
15.31,0.08,0.01,0.00,0.08
15.32,0.09,0.01,0.01,0.09
15.33,0.10,0.00,0.01,0.10
15.34,0.10,0.00,0.00,0.10
15.35,0.09,0.00,0.00,0.09
15.36,0.07,0.01,-0.02,0.07
15.37,0.04,0.03,-0.02,0.05
15.38,0.02,0.04,-0.03,0.05
15.39,0.01,0.04,-0.03,0.05
15.40,0.02,0.02,-0.04,0.05
15.41,0.04,0.02,-0.03,0.05
15.42,0.05,-0.01,-0.02,0.05
15.43,0.06,-0.03,0.00,0.06
15.44,0.07,-0.03,0.01,0.07
15.45,0.07,-0.03,0.00,0.07
15.46,0.06,-0.01,0.00,0.06
15.47,0.05,0.01,0.00,0.06
15.48,0.04,0.01,0.00,0.04
15.49,0.02,0.02,0.00,0.03
15.50,0.01,0.01,0.01,0.02
15.51,0.02,0.00,0.01,0.02
15.52,0.02,-0.01,0.01,0.03
15.53,0.04,-0.01,0.00,0.05
15.54,0.06,-0.01,-0.01,0.06
15.55,0.07,0.00,-0.01,0.07
15.56,0.06,0.01,-0.01,0.06
15.57,0.04,0.02,-0.01,0.05
15.58,0.03,0.02,0.00,0.04
15.59,0.03,0.02,0.01,0.04
15.60,0.04,0.02,0.02,0.05
15.61,0.06,0.02,0.02,0.06
15.62,0.08,0.02,0.02,0.08
15.63,0.08,0.02,0.00,0.08
15.64,0.06,0.02,-0.02,0.06
15.65,0.02,0.03,-0.04,0.05
15.66,-0.02,0.03,-0.05,0.06
15.67,-0.02,0.04,-0.06,0.08
15.68,-0.01,0.04,-0.06,0.07
15.69,0.02,0.04,-0.05,0.07
15.70,0.07,0.03,-0.04,0.08
15.71,0.10,0.01,-0.02,0.11
15.72,0.13,0.01,-0.01,0.13
15.73,0.14,0.00,0.00,0.14
15.74,0.11,-0.02,0.01,0.11
15.75,0.09,-0.02,0.01,0.09
15.76,0.07,-0.01,0.00,0.07
15.77,0.05,0.00,-0.01,0.05
15.78,0.04,0.02,-0.02,0.05
15.79,0.04,0.04,-0.03,0.06
15.80,0.09,0.00,0.00,0.09
15.81,0.14,-0.08,0.04,0.17
15.82,0.18,-0.10,0.07,0.21
15.83,0.19,-0.08,0.08,0.22
15.84,0.20,-0.08,0.10,0.24
15.85,0.19,-0.07,0.10,0.23
15.86,0.16,-0.03,0.07,0.18
15.87,0.12,-0.01,0.04,0.13
15.88,0.07,0.00,0.01,0.07
15.89,0.02,0.05,-0.03,0.06
15.90,0.00,0.09,-0.06,0.11
15.91,0.00,0.10,-0.09,0.14
15.92,0.02,0.10,-0.10,0.15
15.93,0.06,0.08,-0.09,0.13
15.94,0.09,0.05,-0.06,0.12
15.95,0.12,0.03,-0.02,0.12
15.96,0.12,0.00,0.01,0.12
15.97,0.10,-0.03,0.04,0.11
15.98,0.08,-0.04,0.04,0.09
15.99,0.06,-0.02,0.02,0.06
16.00,0.05,0.01,0.00,0.05
16.01,0.05,0.02,-0.03,0.06
16.02,0.06,0.04,-0.05,0.09
16.03,0.07,0.04,-0.06,0.10
16.04,0.09,0.04,-0.05,0.11
16.05,0.10,0.04,-0.04,0.12
16.06,0.12,0.04,-0.03,0.13
16.07,0.13,0.03,-0.01,0.14
16.08,0.14,0.02,0.00,0.14
16.09,0.15,0.00,0.00,0.15
16.10,0.15,0.01,-0.01,0.15
16.11,0.15,0.02,-0.02,0.15
16.12,0.14,0.05,-0.04,0.16
16.13,0.11,0.06,-0.06,0.14
16.14,0.06,0.07,-0.06,0.11
16.15,0.02,0.08,-0.06,0.10
16.16,-0.01,0.08,-0.05,0.09
16.17,-0.01,0.07,-0.04,0.08
16.18,0.02,0.05,-0.03,0.06
16.19,0.05,0.02,-0.03,0.06
16.20,0.08,-0.01,-0.02,0.09
16.21,0.10,-0.03,-0.02,0.10
16.22,0.08,-0.03,-0.01,0.09
16.23,0.05,-0.02,-0.01,0.06
16.24,0.01,0.01,-0.01,0.02
16.25,-0.01,0.02,-0.01,0.03
16.26,-0.03,0.03,-0.02,0.05
16.27,-0.02,0.04,-0.03,0.05
16.28,0.00,0.04,-0.02,0.04
16.29,0.02,0.02,-0.01,0.03
16.30,0.03,0.01,0.00,0.04
16.31,0.04,0.00,0.02,0.05
16.32,0.03,0.00,0.04,0.05
16.33,0.02,0.00,0.04,0.05
16.34,0.02,0.01,0.04,0.05
16.35,0.02,0.04,0.03,0.05
16.36,0.03,0.06,0.02,0.07
16.37,0.03,0.06,0.01,0.07
16.38,0.05,0.05,0.00,0.07
16.39,0.07,0.04,0.00,0.07
16.40,0.07,0.03,0.01,0.08
16.41,0.08,0.02,0.01,0.08
16.42,0.09,0.01,0.02,0.10
16.43,0.10,-0.02,0.02,0.10
16.44,0.11,-0.04,0.02,0.12
16.45,0.12,-0.04,0.01,0.12
16.46,0.12,-0.03,0.01,0.12
16.47,0.11,-0.02,-0.01,0.12
16.48,0.12,0.01,-0.02,0.13
16.49,0.13,0.03,-0.03,0.13
16.50,0.12,0.05,-0.03,0.13
16.51,0.07,0.06,-0.02,0.09
16.52,0.01,0.05,-0.01,0.05
16.53,-0.02,0.07,-0.01,0.07
16.54,-0.04,0.04,0.00,0.06
16.55,-0.04,0.03,-0.01,0.05
16.56,-0.01,0.04,-0.03,0.05
16.57,0.01,0.04,-0.05,0.06
16.58,0.01,0.03,-0.06,0.07
16.59,0.01,0.03,-0.08,0.08
16.60,0.01,0.04,-0.08,0.09
16.61,0.00,0.04,-0.09,0.10
16.62,0.01,0.04,-0.09,0.10
16.63,0.02,0.04,-0.08,0.09
16.64,0.04,0.04,-0.08,0.09
16.65,0.07,0.03,-0.06,0.10
16.66,0.11,0.02,-0.04,0.12
16.67,0.15,0.01,-0.04,0.16
16.68,0.18,0.01,-0.04,0.19
16.69,0.20,-0.01,-0.04,0.20
16.70,0.20,-0.01,-0.06,0.21
16.71,0.19,0.01,-0.07,0.21
16.72,0.17,0.03,-0.09,0.19
16.73,0.13,0.06,-0.09,0.17
16.74,0.09,0.07,-0.09,0.15
16.75,0.10,0.08,-0.08,0.15
16.76,0.14,0.03,-0.04,0.14
16.77,0.16,-0.03,-0.03,0.17
16.78,0.19,-0.02,-0.03,0.20
16.79,0.20,-0.02,-0.03,0.21
16.80,0.19,0.00,-0.01,0.19
16.81,0.18,0.00,0.02,0.18
16.82,0.13,-0.02,0.04,0.14
16.83,0.08,0.01,0.05,0.10
16.84,0.04,0.03,0.05,0.07
16.85,0.02,0.06,0.03,0.07
16.86,0.03,0.08,0.02,0.08
16.87,0.05,0.09,0.00,0.10
16.88,0.09,0.10,-0.01,0.13
16.89,0.13,0.09,0.00,0.16
16.90,0.18,0.08,0.01,0.19
16.91,0.22,0.08,0.03,0.23
16.92,0.22,0.08,0.06,0.25
16.93,0.20,0.09,0.10,0.24
16.94,0.18,0.09,0.13,0.24
16.95,0.17,0.09,0.15,0.24
16.96,0.14,0.07,0.14,0.21
16.97,0.13,0.05,0.12,0.19
16.98,0.13,0.04,0.09,0.16
16.99,0.15,0.03,0.06,0.17
17.00,0.19,0.01,0.05,0.20
17.01,0.22,-0.02,0.05,0.22
17.02,0.22,-0.02,0.05,0.22
17.03,0.20,-0.01,0.04,0.21
17.04,0.16,0.01,0.04,0.16
17.05,0.09,0.02,0.04,0.10
17.06,0.04,0.04,0.03,0.07
17.07,0.02,0.05,0.02,0.06
17.08,0.01,0.05,0.00,0.05
17.09,0.03,0.03,0.00,0.04
17.10,0.07,0.00,0.00,0.07
17.11,0.10,-0.03,0.00,0.11
17.12,0.13,-0.04,0.02,0.14
17.13,0.16,-0.05,0.04,0.17
17.14,0.18,-0.03,0.04,0.18
17.15,0.16,0.00,0.03,0.16
17.16,0.10,0.02,0.02,0.11
17.17,0.02,0.01,0.01,0.03
17.18,-0.03,0.01,0.00,0.03
17.19,-0.05,0.00,-0.01,0.05
17.20,-0.05,0.00,-0.03,0.05
17.21,-0.01,0.00,-0.04,0.04
17.22,0.03,0.00,-0.04,0.05
17.23,0.07,-0.01,-0.03,0.07
17.24,0.09,-0.02,-0.02,0.10
17.25,0.10,-0.02,0.00,0.10
17.26,0.09,-0.01,0.03,0.09
17.27,0.07,0.01,0.03,0.08
17.28,0.07,0.01,0.03,0.08
17.29,0.06,-0.01,0.01,0.06
17.30,0.05,-0.01,0.00,0.06
17.31,0.06,0.00,-0.02,0.06
17.32,0.07,0.01,-0.04,0.08
17.33,0.08,0.02,-0.04,0.10
17.34,0.10,0.03,-0.04,0.11
17.35,0.12,0.04,-0.02,0.12
17.36,0.14,0.02,0.01,0.14
17.37,0.16,0.00,0.03,0.16
17.38,0.19,-0.01,0.05,0.19
17.39,0.21,-0.01,0.06,0.22
17.40,0.23,0.04,0.07,0.24
17.41,0.22,0.05,0.09,0.24
17.42,0.21,0.04,0.17,0.28
17.43,0.15,-0.04,0.22,0.27
17.44,0.11,-0.05,0.25,0.28
17.45,0.09,-0.06,0.25,0.28
17.46,0.09,-0.04,0.22,0.25
17.47,0.09,0.01,0.18,0.20
17.48,0.08,0.06,0.13,0.16
17.49,0.05,0.08,0.09,0.13
17.50,0.01,0.11,0.05,0.12
17.51,-0.01,0.12,0.01,0.12
17.52,0.00,0.10,-0.01,0.10
17.53,0.04,0.06,-0.03,0.07
17.54,0.09,0.01,-0.03,0.10
17.55,0.14,-0.03,-0.03,0.15
17.56,0.19,-0.04,-0.04,0.20
17.57,0.21,-0.03,-0.03,0.22
17.58,0.20,0.00,-0.01,0.20
17.59,0.16,0.01,0.00,0.16
17.60,0.12,-0.01,0.02,0.13
17.61,0.13,-0.03,0.06,0.15
17.62,0.13,-0.10,0.07,0.18
17.63,0.14,-0.12,0.06,0.20
17.64,0.18,-0.13,0.06,0.23
17.65,0.19,-0.15,0.04,0.25
17.66,0.22,-0.14,0.03,0.26
17.67,0.22,-0.13,0.01,0.26
17.68,0.23,-0.11,-0.01,0.26
17.69,0.21,-0.10,-0.04,0.24
17.70,0.19,-0.06,-0.06,0.20
17.71,0.15,-0.06,-0.07,0.17
17.72,0.11,-0.07,-0.09,0.15
17.73,0.09,-0.05,-0.10,0.14
17.74,0.09,-0.05,-0.12,0.16
17.75,0.10,-0.05,-0.14,0.18
17.76,0.13,-0.05,-0.15,0.21
17.77,0.16,-0.05,-0.15,0.23
17.78,0.19,-0.05,-0.14,0.24
17.79,0.21,-0.02,-0.11,0.24
17.80,0.22,-0.03,-0.08,0.24
17.81,0.24,-0.05,-0.05,0.25
17.82,0.29,-0.04,-0.01,0.29
17.83,0.32,-0.07,0.01,0.33
17.84,0.37,-0.09,0.04,0.38
17.85,0.39,-0.12,0.06,0.42
17.86,0.41,-0.15,0.07,0.45
17.87,0.40,-0.15,0.08,0.44
17.88,0.37,-0.15,0.09,0.41
17.89,0.32,-0.13,0.07,0.35
17.90,0.25,-0.10,0.04,0.27
17.91,0.15,-0.05,0.01,0.16
17.92,0.07,-0.03,-0.03,0.08
17.93,-0.01,0.00,-0.08,0.08
17.94,-0.05,0.06,-0.12,0.14
17.95,-0.09,0.10,-0.14,0.19
17.96,-0.07,0.11,-0.13,0.18
17.97,-0.09,0.08,-0.10,0.16
17.98,-0.05,0.04,-0.08,0.10
17.99,0.01,0.00,-0.05,0.05
18.00,0.07,-0.04,-0.01,0.08
18.01,0.11,-0.07,0.02,0.14
18.02,0.14,-0.07,0.05,0.17
18.03,0.16,-0.07,0.06,0.18
18.04,0.16,-0.04,0.07,0.18
18.05,0.13,-0.02,0.07,0.15
18.06,0.09,-0.01,0.05,0.10
18.07,0.05,0.01,0.02,0.05
18.08,-0.02,0.00,-0.01,0.02
18.09,-0.07,0.01,-0.03,0.08
18.10,-0.09,0.02,-0.05,0.10
18.11,-0.07,0.03,-0.06,0.10
18.12,-0.04,0.05,-0.06,0.09
18.13,-0.01,0.02,-0.03,0.04
18.14,0.01,-0.01,0.01,0.02
18.15,0.01,-0.03,0.06,0.07
18.16,0.00,-0.07,0.10,0.12
18.17,0.00,-0.10,0.11,0.15
18.18,0.01,-0.10,0.11,0.15
18.19,0.02,-0.08,0.08,0.11
18.20,0.01,-0.04,0.04,0.06
18.21,-0.03,0.00,0.01,0.03
18.22,-0.09,0.04,-0.01,0.10
18.23,-0.17,0.08,0.00,0.19
18.24,-0.24,0.08,0.01,0.26
18.25,-0.30,0.11,0.04,0.33
18.26,-0.35,0.11,0.08,0.38
18.27,-0.37,0.04,0.11,0.39
18.28,-0.37,0.03,0.13,0.39
18.29,-0.36,0.01,0.13,0.38
18.30,-0.40,-0.08,0.13,0.43
18.31,-0.50,-0.17,0.15,0.54
18.32,-0.58,-0.21,0.15,0.64
18.33,-0.64,-0.21,0.14,0.68
18.34,-0.65,-0.19,0.10,0.68
18.35,-0.64,-0.16,0.06,0.66
18.36,-0.63,-0.14,-0.01,0.64
18.37,-0.60,-0.08,-0.09,0.61
18.38,-0.60,-0.04,-0.15,0.62
18.39,-0.65,-0.01,-0.20,0.68
18.40,-0.73,0.01,-0.22,0.76
18.41,-0.81,-0.02,-0.22,0.83
18.42,-0.86,-0.04,-0.20,0.88
18.43,-0.87,-0.05,-0.19,0.89
18.44,-0.84,-0.04,-0.17,0.86
18.45,-0.81,-0.02,-0.15,0.82
18.46,-0.77,-0.01,-0.13,0.78
18.47,-0.73,0.02,-0.11,0.74
18.48,-0.71,0.06,-0.08,0.72
18.49,-0.71,0.05,-0.03,0.71
18.50,-0.71,0.03,0.01,0.71
18.51,-0.71,-0.01,0.07,0.71
18.52,-0.72,-0.06,0.11,0.73
18.53,-0.72,-0.08,0.17,0.74
18.54,-0.70,-0.10,0.19,0.74
18.55,-0.65,-0.07,0.20,0.68
18.56,-0.60,-0.03,0.21,0.64
18.57,-0.60,0.00,0.19,0.63
18.58,-0.59,0.06,0.19,0.62
18.59,-0.62,0.07,0.17,0.65
18.60,-0.65,0.10,0.13,0.67
18.61,-0.66,0.10,0.09,0.67
18.62,-0.64,0.07,0.05,0.65
18.63,-0.60,0.06,0.03,0.61
18.64,-0.55,0.04,0.02,0.55
18.65,-0.51,0.02,0.03,0.51
18.66,-0.47,-0.02,0.05,0.47
18.67,-0.45,-0.04,0.07,0.46
18.68,-0.44,-0.04,0.09,0.45
18.69,-0.43,-0.07,0.11,0.45
18.70,-0.44,-0.11,0.13,0.47
18.71,-0.44,-0.15,0.13,0.48
18.72,-0.44,-0.18,0.12,0.49
18.73,-0.43,-0.18,0.09,0.48
18.74,-0.42,-0.17,0.05,0.45
18.75,-0.41,-0.17,0.02,0.44
18.76,-0.40,-0.14,0.00,0.42
18.77,-0.38,-0.09,-0.02,0.40
18.78,-0.38,-0.06,-0.04,0.39
18.79,-0.40,-0.03,-0.05,0.41
18.80,-0.42,-0.02,-0.04,0.42
18.81,-0.43,-0.03,-0.04,0.43
18.82,-0.44,-0.05,-0.04,0.44
18.83,-0.44,-0.06,-0.05,0.45
18.84,-0.43,-0.10,-0.06,0.45
18.85,-0.41,-0.15,-0.07,0.44
18.86,-0.39,-0.17,-0.09,0.44
18.87,-0.37,-0.15,-0.09,0.41
18.88,-0.38,-0.12,-0.11,0.41
18.89,-0.36,-0.09,-0.10,0.39
18.90,-0.34,-0.07,-0.10,0.36
18.91,-0.30,-0.06,-0.10,0.32
18.92,-0.27,-0.04,-0.09,0.29
18.93,-0.25,-0.06,-0.08,0.27
18.94,-0.26,-0.10,-0.06,0.28
18.95,-0.27,-0.13,-0.05,0.31
18.96,-0.27,-0.14,-0.04,0.30
18.97,-0.25,-0.12,-0.04,0.28
18.98,-0.22,-0.09,-0.04,0.24
18.99,-0.19,-0.06,-0.05,0.20
19.00,-0.15,-0.02,-0.06,0.16
19.01,-0.13,0.02,-0.05,0.14
19.02,-0.11,0.03,-0.03,0.12
19.03,-0.10,0.05,-0.01,0.11
19.04,-0.09,0.05,0.02,0.11
19.05,-0.07,0.05,0.05,0.10
19.06,-0.03,0.04,0.08,0.10
19.07,0.01,0.03,0.10,0.11
19.08,0.03,0.03,0.12,0.13
19.09,0.04,0.03,0.14,0.14
19.10,0.03,0.04,0.13,0.14
19.11,0.03,0.05,0.12,0.13
19.12,0.01,0.07,0.09,0.12
19.13,0.00,0.11,0.06,0.12
19.14,-0.02,0.13,0.03,0.13
19.15,-0.04,0.14,0.00,0.15
19.16,-0.06,0.13,-0.02,0.14
19.17,-0.05,0.12,-0.03,0.13
19.18,-0.04,0.10,-0.04,0.12
19.19,-0.07,0.14,-0.08,0.17
19.20,-0.08,0.18,-0.09,0.22
19.21,-0.08,0.12,-0.08,0.17
19.22,-0.09,0.08,-0.07,0.14
19.23,-0.09,0.10,-0.06,0.15
19.24,-0.06,0.07,-0.05,0.10
19.25,-0.03,0.02,-0.02,0.04
19.26,0.01,-0.02,0.00,0.02
19.27,0.05,-0.06,0.02,0.08
19.28,0.08,-0.08,0.03,0.11
19.29,0.07,-0.09,0.03,0.11
19.30,0.03,-0.08,0.03,0.09
19.31,-0.02,-0.05,0.01,0.06
19.32,-0.08,-0.02,-0.02,0.08
19.33,-0.11,0.01,-0.04,0.12
19.34,-0.13,0.02,-0.07,0.14
19.35,-0.12,0.03,-0.08,0.14
19.36,-0.09,0.02,-0.08,0.12
19.37,-0.06,-0.02,-0.06,0.09
19.38,-0.04,-0.05,-0.04,0.08
19.39,-0.01,-0.07,-0.02,0.07
19.40,-0.01,-0.07,0.00,0.07
19.41,-0.02,-0.06,0.01,0.07
19.42,-0.04,-0.03,0.00,0.05
19.43,-0.07,-0.02,-0.01,0.07
19.44,-0.10,-0.02,-0.04,0.11
19.45,-0.11,-0.03,-0.07,0.13
19.46,-0.13,-0.03,-0.09,0.16
19.47,-0.13,-0.02,-0.09,0.16
19.48,-0.10,-0.03,-0.08,0.13
19.49,-0.05,-0.04,-0.07,0.10
19.50,-0.01,-0.05,-0.06,0.08
19.51,0.01,-0.06,-0.04,0.07
19.52,0.02,-0.05,-0.02,0.06
19.53,0.02,-0.03,0.00,0.03
19.54,0.01,0.00,0.02,0.02
19.55,0.00,0.00,0.03,0.03
19.56,0.00,0.01,0.02,0.03
19.57,0.01,0.00,0.01,0.01
19.58,0.00,-0.01,-0.01,0.02
19.59,0.00,-0.02,-0.03,0.03
19.60,0.00,-0.01,-0.04,0.04
19.61,-0.01,0.01,-0.05,0.05
19.62,-0.01,0.03,-0.05,0.06
19.63,-0.01,0.05,-0.06,0.07
19.64,-0.05,0.10,-0.11,0.16
19.65,-0.08,0.22,-0.15,0.28
19.66,-0.10,0.22,-0.16,0.29
19.67,-0.13,0.22,-0.17,0.30
19.68,-0.13,0.22,-0.13,0.29
19.69,-0.11,0.15,-0.09,0.21
19.70,-0.06,0.07,-0.03,0.10
19.71,-0.02,0.03,0.00,0.03
19.72,0.03,0.00,0.03,0.04
19.73,0.05,-0.04,0.03,0.07
19.74,0.03,-0.03,0.03,0.05
19.75,-0.02,-0.01,0.01,0.03
19.76,-0.06,0.00,-0.02,0.07
19.77,-0.04,0.05,-0.06,0.09
19.78,-0.09,0.04,-0.08,0.13
19.79,-0.07,0.23,-0.12,0.27
19.80,-0.14,0.14,-0.15,0.25
19.81,-0.18,0.19,-0.14,0.30
19.82,-0.20,0.18,-0.14,0.30
19.83,-0.17,0.12,-0.11,0.24
19.84,-0.12,0.10,-0.09,0.18
19.85,-0.10,-0.01,-0.06,0.11
19.86,-0.07,-0.08,-0.01,0.11
19.87,-0.06,-0.11,0.03,0.13
19.88,-0.03,-0.09,0.06,0.11
19.89,-0.02,-0.11,0.07,0.13
19.90,-0.01,-0.11,0.07,0.13
19.91,0.00,-0.08,0.05,0.09
19.92,-0.02,-0.07,0.03,0.08
19.93,-0.04,-0.01,0.01,0.04
19.94,-0.08,0.00,-0.02,0.08
19.95,-0.09,0.01,-0.04,0.10
19.96,-0.10,0.00,-0.06,0.12
19.97,-0.09,-0.01,-0.08,0.12
19.98,-0.06,-0.03,-0.08,0.10
19.99,-0.03,-0.06,-0.06,0.09
20.00,0.00,-0.05,-0.03,0.07
20.01,0.03,-0.05,0.00,0.05
20.02,0.03,-0.04,0.04,0.07
20.03,0.04,-0.04,0.05,0.08
20.04,0.05,-0.04,0.04,0.07
20.05,0.05,-0.05,0.02,0.07
20.06,0.06,-0.05,-0.01,0.08
20.07,0.07,-0.03,-0.04,0.09
20.08,0.08,-0.01,-0.07,0.11
20.09,0.07,0.01,-0.09,0.12
20.10,0.06,0.03,-0.09,0.11
20.11,0.04,0.05,-0.08,0.10
20.12,0.03,0.05,-0.06,0.08
20.13,0.02,0.03,-0.03,0.05
20.14,0.02,0.00,-0.01,0.03
20.15,0.04,-0.03,0.00,0.05
20.16,0.07,-0.04,0.01,0.08
20.17,0.08,-0.04,0.02,0.09
20.18,0.08,-0.03,0.02,0.09
20.19,0.06,-0.02,0.02,0.07
20.20,0.03,0.00,0.02,0.04
20.21,0.01,0.01,0.02,0.03
20.22,0.01,0.02,0.01,0.02
20.23,0.01,0.02,0.01,0.02
20.24,0.02,0.02,0.01,0.03
20.25,0.04,0.01,0.01,0.05
20.26,0.06,0.01,0.01,0.06
20.27,0.06,0.02,0.02,0.07
20.28,0.05,0.03,0.03,0.06
20.29,0.05,0.02,0.03,0.06
20.30,0.05,0.01,0.02,0.05
20.31,0.05,0.01,0.01,0.05
20.32,0.03,0.01,-0.01,0.04
20.33,0.02,0.02,-0.01,0.04
20.34,0.01,0.05,-0.01,0.05
20.35,-0.01,0.05,-0.01,0.06
20.36,-0.02,0.05,0.00,0.06
20.37,-0.02,0.03,0.01,0.04
20.38,0.01,0.00,0.00,0.01
20.39,0.04,-0.03,0.00,0.05
20.40,0.06,-0.06,-0.01,0.08
20.41,0.09,-0.07,-0.02,0.11
20.42,0.11,-0.06,-0.03,0.13
20.43,0.13,-0.05,-0.03,0.15
20.44,0.15,-0.05,-0.02,0.16
20.45,0.11,-0.05,-0.01,0.12
20.46,0.05,-0.03,0.00,0.06
20.47,0.01,-0.01,0.00,0.01
20.48,0.01,0.01,-0.01,0.02
20.49,0.03,0.02,-0.04,0.06
20.50,0.07,0.04,-0.06,0.10
20.51,0.10,0.05,-0.08,0.13
20.52,0.11,0.05,-0.07,0.14
20.53,0.10,0.07,-0.06,0.13
20.53,0.08,0.06,-0.04,0.11
20.54,0.06,0.04,-0.02,0.07
20.55,0.06,0.03,0.00,0.06
20.56,0.07,0.03,0.01,0.07
20.57,0.07,0.03,0.03,0.08
20.58,0.05,0.05,0.05,0.08
20.59,0.02,0.05,0.06,0.08
20.60,0.01,0.06,0.06,0.09
20.61,0.01,0.06,0.04,0.08
20.62,0.02,0.06,0.02,0.07
20.63,0.02,0.05,0.01,0.06
20.64,0.03,0.04,0.00,0.05
20.65,0.05,0.03,0.01,0.06
20.66,0.07,0.02,0.01,0.08
20.67,0.06,-0.01,0.02,0.07
20.68,0.03,-0.01,0.06,0.07
20.69,0.01,-0.03,0.08,0.08
20.70,0.00,-0.02,0.08,0.08
20.71,0.02,0.02,0.08,0.08
20.72,0.02,0.02,0.07,0.08
20.73,0.03,0.01,0.05,0.06
20.74,0.02,0.01,0.03,0.04
20.75,0.01,-0.02,0.01,0.02
20.76,0.01,-0.01,-0.01,0.02
20.77,0.02,0.02,-0.02,0.03
20.78,0.03,0.02,-0.02,0.04
20.79,0.03,0.04,-0.02,0.06
20.80,0.01,0.03,0.01,0.04
20.81,-0.01,0.00,0.02,0.02
20.82,-0.02,-0.02,0.04,0.04
20.83,-0.02,-0.04,0.05,0.07
20.84,-0.03,-0.05,0.07,0.09
20.85,-0.03,-0.03,0.08,0.09
20.86,-0.05,-0.01,0.08,0.10
20.87,-0.08,0.00,0.09,0.11
20.88,-0.08,0.01,0.07,0.11
20.89,-0.07,0.02,0.06,0.09
20.90,-0.04,0.02,0.04,0.06
20.91,-0.01,0.02,0.03,0.04
20.92,0.01,0.01,0.03,0.03
20.93,0.01,-0.01,0.04,0.04
20.94,0.01,-0.01,0.05,0.05
20.95,0.00,-0.01,0.06,0.06
20.96,-0.02,-0.01,0.08,0.08
20.97,-0.05,-0.01,0.09,0.10
20.98,-0.06,-0.01,0.08,0.10
20.99,-0.06,0.00,0.08,0.10
21.00,-0.05,0.00,0.06,0.08
21.01,-0.03,0.00,0.03,0.05
21.02,-0.02,-0.01,0.01,0.02
21.03,0.00,-0.04,0.01,0.04
21.04,0.01,-0.07,0.02,0.07
21.05,0.01,-0.09,0.03,0.10
21.06,0.00,-0.11,0.03,0.12
21.07,-0.01,-0.12,0.04,0.13
21.08,-0.03,-0.11,0.04,0.12
21.09,-0.05,-0.10,0.04,0.11
21.10,-0.06,-0.06,0.03,0.09
21.11,-0.06,-0.03,0.03,0.07
21.12,-0.04,-0.02,0.02,0.05
21.13,-0.01,-0.01,0.01,0.02
21.14,0.01,-0.01,0.00,0.02
21.15,0.03,-0.03,0.00,0.04
21.16,0.04,-0.04,0.00,0.06
21.17,0.05,-0.04,0.01,0.06
21.18,0.06,-0.03,0.02,0.07
21.19,0.07,-0.01,0.02,0.07
21.20,0.07,0.00,0.02,0.07
21.21,0.06,0.01,0.01,0.07
21.22,0.05,0.02,-0.01,0.05
21.23,0.02,0.03,-0.02,0.04
21.24,-0.01,0.06,-0.02,0.06
21.25,-0.02,0.07,-0.03,0.08
21.26,-0.01,0.08,-0.04,0.09
21.27,0.00,0.08,-0.04,0.09
21.28,0.01,0.05,-0.04,0.07
21.29,0.02,0.03,-0.03,0.05
21.30,0.01,0.01,-0.01,0.02
21.31,-0.01,-0.01,0.01,0.01
21.32,-0.03,-0.02,0.03,0.05
21.33,-0.06,-0.02,0.05,0.08
21.34,-0.08,-0.01,0.06,0.10
21.35,-0.08,0.00,0.05,0.10
21.36,-0.07,0.01,0.03,0.08
21.37,-0.06,0.01,0.01,0.06
21.38,-0.06,0.00,-0.01,0.07
21.39,-0.07,-0.03,-0.02,0.08
21.40,-0.07,-0.06,-0.02,0.10
21.41,-0.08,-0.08,0.01,0.11
21.42,-0.08,-0.10,0.04,0.13
21.43,-0.08,-0.10,0.07,0.15
21.44,-0.07,-0.10,0.09,0.15
21.45,-0.04,-0.09,0.09,0.13
21.46,-0.01,-0.09,0.07,0.11
21.47,-0.01,-0.06,0.03,0.07
21.48,-0.03,-0.05,0.01,0.06
21.49,-0.06,-0.04,-0.02,0.08
21.50,-0.10,-0.02,-0.04,0.11
21.51,-0.12,-0.01,-0.05,0.13
21.52,-0.12,0.00,-0.06,0.14
21.53,-0.10,0.01,-0.07,0.12
21.54,-0.05,0.00,-0.08,0.09
21.55,0.01,-0.01,-0.08,0.08
21.56,0.05,-0.02,-0.08,0.10
21.57,0.08,-0.02,-0.08,0.11
21.58,0.08,-0.02,-0.07,0.11
21.59,0.07,-0.02,-0.06,0.09
21.60,0.05,-0.01,-0.05,0.07
21.61,0.03,0.00,-0.06,0.07
21.62,0.02,0.02,-0.06,0.06
21.63,0.01,0.03,-0.06,0.07
21.64,0.01,0.05,-0.05,0.07
21.65,0.01,0.05,-0.05,0.07
21.66,0.01,0.04,-0.04,0.06
21.67,0.01,0.02,-0.03,0.04
21.68,0.02,0.00,-0.03,0.03
21.69,0.02,-0.02,-0.01,0.03
21.70,0.02,-0.02,-0.01,0.03
21.71,0.03,-0.01,0.00,0.03
21.72,0.03,-0.01,-0.01,0.03
21.73,0.03,0.01,-0.02,0.04
21.74,0.03,0.02,-0.03,0.04
21.75,0.03,0.04,-0.03,0.05
21.76,0.02,0.06,-0.02,0.06
21.77,0.02,0.06,-0.01,0.06
21.78,0.03,0.05,0.01,0.06
21.79,0.03,0.04,0.04,0.06
21.80,0.04,0.03,0.06,0.08
21.81,0.06,0.03,0.08,0.10
21.82,0.07,0.04,0.09,0.12
21.83,0.07,0.05,0.09,0.12
21.84,0.06,0.05,0.09,0.12
21.85,0.05,0.04,0.07,0.10
21.86,0.03,0.04,0.06,0.07
21.87,0.01,0.03,0.04,0.05
21.88,0.01,0.03,0.03,0.05
21.89,0.02,0.04,0.03,0.05
21.90,0.03,0.04,0.03,0.06
21.91,0.04,0.03,0.04,0.06
21.92,0.03,0.02,0.06,0.07
21.93,0.03,0.02,0.07,0.08
21.94,0.03,0.01,0.08,0.08
21.95,0.04,-0.01,0.07,0.08
21.96,0.05,-0.02,0.06,0.08
21.97,0.05,-0.02,0.05,0.08
21.98,0.04,-0.01,0.04,0.06
21.99,0.03,0.01,0.03,0.05
22.00,0.02,0.03,0.03,0.05
22.01,0.03,0.04,0.03,0.06
22.02,0.04,0.04,0.03,0.06
22.03,0.04,0.03,0.04,0.06
22.04,0.04,0.02,0.05,0.07
22.05,0.03,0.01,0.06,0.07
22.06,0.04,0.00,0.06,0.07
22.07,0.05,0.00,0.06,0.07
22.08,0.06,0.01,0.04,0.07
22.09,0.06,0.02,0.03,0.07
22.10,0.04,0.04,0.02,0.06
22.11,0.02,0.05,0.01,0.05
22.12,0.01,0.05,0.01,0.05
22.13,-0.01,0.05,0.02,0.05
22.14,-0.01,0.03,0.03,0.04
22.15,0.00,0.01,0.04,0.04
22.16,0.01,-0.01,0.04,0.05
22.17,0.02,-0.01,0.04,0.05
22.18,0.03,-0.01,0.04,0.05
22.19,0.02,-0.01,0.04,0.04
22.20,0.00,0.00,0.03,0.03
22.21,-0.01,0.01,0.03,0.04
22.22,-0.02,0.01,0.03,0.04
22.23,-0.02,0.00,0.03,0.04
22.24,-0.02,-0.01,0.04,0.04
22.25,-0.02,-0.03,0.03,0.05
22.26,-0.01,-0.04,0.04,0.05
22.27,-0.01,-0.04,0.03,0.05
22.28,-0.02,-0.04,0.03,0.05
22.29,-0.01,-0.03,0.02,0.04
22.30,-0.01,-0.04,0.04,0.05
22.31,0.00,-0.09,0.07,0.11
22.32,0.01,-0.09,0.07,0.12
22.33,0.02,-0.07,0.07,0.10
22.34,0.03,-0.05,0.05,0.08
22.35,0.03,-0.03,0.05,0.06
22.36,0.02,-0.01,0.04,0.04
22.37,0.01,0.03,0.03,0.04
22.38,-0.01,0.05,0.02,0.05
22.39,-0.01,0.06,0.01,0.06
22.40,0.01,0.07,0.00,0.07
22.41,0.03,0.07,0.00,0.07
22.42,0.04,0.06,-0.01,0.07
22.43,0.06,0.05,0.00,0.08
22.44,0.09,0.03,0.00,0.09
22.45,0.10,0.00,0.00,0.10
22.46,0.07,-0.03,0.00,0.08
22.47,0.03,-0.05,0.01,0.06
22.48,0.00,-0.06,0.01,0.06
22.49,-0.01,-0.05,0.00,0.05
22.50,-0.01,-0.03,0.00,0.03
22.51,0.00,-0.02,-0.02,0.02
22.52,0.02,-0.01,-0.02,0.03
22.53,0.03,0.00,-0.01,0.04
22.54,0.03,0.00,0.00,0.04
22.55,0.03,0.00,0.01,0.04
22.56,0.03,-0.01,0.03,0.05
22.57,0.05,-0.03,0.03,0.06
22.58,0.07,-0.03,0.03,0.08
22.59,0.09,-0.03,0.03,0.10
22.60,0.10,-0.03,0.03,0.11
22.61,0.08,-0.01,0.03,0.09
22.62,0.06,0.01,0.03,0.07
22.63,0.05,0.05,0.01,0.07
22.64,0.03,0.06,0.00,0.07
22.65,0.04,0.09,-0.02,0.10
22.66,0.04,0.10,-0.02,0.11
22.67,0.04,0.08,-0.02,0.09
22.68,0.04,0.07,-0.01,0.08
22.69,0.04,0.06,0.00,0.07
22.70,0.04,0.05,0.02,0.06
22.71,0.04,0.03,0.04,0.07
22.72,0.04,0.01,0.07,0.08
22.73,0.04,0.00,0.09,0.10
22.74,0.04,0.00,0.11,0.11
22.75,0.04,0.00,0.10,0.11
22.76,0.03,-0.01,0.09,0.09
22.77,0.02,-0.02,0.05,0.06
22.78,0.02,-0.01,0.03,0.03
22.79,-0.02,-0.02,0.01,0.03
22.80,-0.05,-0.03,0.00,0.05
22.81,-0.05,-0.02,0.01,0.05
22.82,-0.04,-0.04,0.02,0.06
22.83,-0.04,-0.05,0.02,0.07
22.84,-0.04,-0.05,0.03,0.07
22.85,-0.03,-0.05,0.03,0.07
22.86,-0.04,-0.04,0.02,0.06
22.87,-0.06,-0.03,0.01,0.07
22.88,-0.07,-0.01,0.01,0.07
22.89,-0.07,0.01,-0.01,0.07
22.90,-0.08,0.01,-0.01,0.08
22.91,-0.08,0.00,0.00,0.08
22.92,-0.08,-0.01,0.02,0.08
22.93,-0.06,-0.02,0.05,0.08
22.94,-0.04,-0.03,0.08,0.10
22.95,-0.03,-0.05,0.11,0.13
22.96,-0.03,-0.09,0.13,0.16
22.97,-0.06,-0.11,0.13,0.18
22.98,-0.08,-0.11,0.13,0.19
22.99,-0.09,-0.09,0.11,0.17
23.00,-0.08,-0.05,0.09,0.13
23.01,-0.11,0.01,0.11,0.15
23.02,-0.18,0.05,0.13,0.23
23.03,-0.30,0.06,0.19,0.36
23.04,-0.42,-0.02,0.35,0.55
23.05,-0.50,-0.20,0.50,0.73
23.06,-0.51,-0.23,0.58,0.80
23.07,-0.44,-0.24,0.65,0.82
23.08,-0.29,-0.36,0.72,0.86
23.09,-0.14,-0.48,0.78,0.93
23.10,-0.01,-0.58,0.81,1.00
23.11,0.08,-0.67,0.81,1.05
23.12,0.13,-0.71,0.76,1.05
23.13,0.11,-0.67,0.64,0.94
23.14,0.01,-0.54,0.46,0.71
23.15,-0.14,-0.28,0.25,0.40
23.16,-0.27,0.02,0.04,0.28
23.17,-0.32,0.26,-0.13,0.43
23.18,-0.27,0.40,-0.22,0.53
23.19,-0.14,0.45,-0.24,0.53
23.20,0.02,0.41,-0.19,0.45
23.21,0.13,0.25,-0.10,0.30
23.22,0.16,0.02,0.02,0.16
23.23,0.11,-0.20,0.14,0.27
23.24,0.06,-0.33,0.23,0.40
23.25,0.03,-0.35,0.24,0.42
23.26,0.02,-0.26,0.20,0.33
23.27,-0.01,-0.14,0.14,0.20
23.28,-0.03,-0.02,0.08,0.09
23.29,-0.04,0.06,0.02,0.08
23.30,-0.03,0.11,-0.04,0.12
23.31,0.02,0.13,-0.07,0.15
23.32,0.08,0.14,-0.10,0.19
23.33,0.12,0.13,-0.10,0.20
23.34,0.13,0.10,-0.08,0.18
23.35,0.11,0.08,-0.05,0.14
23.36,0.09,0.08,-0.02,0.13
23.37,0.09,0.09,-0.01,0.13
23.38,0.10,0.12,-0.02,0.16
23.39,0.12,0.15,-0.04,0.19
23.40,0.14,0.17,-0.07,0.23
23.41,0.15,0.21,-0.10,0.28
23.42,0.13,0.24,-0.13,0.30
23.43,0.09,0.28,-0.16,0.34
23.44,0.06,0.28,-0.17,0.33
23.45,0.01,0.26,-0.18,0.31
23.46,-0.02,0.26,-0.17,0.31
23.47,-0.04,0.20,-0.15,0.25
23.48,-0.03,0.17,-0.13,0.22
23.49,0.00,0.15,-0.10,0.18
23.50,0.03,0.10,-0.09,0.14
23.51,0.03,0.12,-0.09,0.15
23.52,0.03,0.11,-0.08,0.14
23.53,0.03,0.08,-0.07,0.11
23.54,0.04,0.05,-0.07,0.10
23.55,0.05,0.02,-0.08,0.09
23.56,0.04,-0.01,-0.08,0.09
23.57,0.02,-0.02,-0.07,0.08
23.58,-0.01,-0.03,-0.06,0.07
23.59,-0.04,-0.03,-0.05,0.07
23.60,-0.05,-0.04,-0.05,0.08
23.61,-0.05,-0.05,-0.04,0.08
23.62,-0.04,-0.07,-0.03,0.09
23.63,-0.03,-0.09,-0.03,0.10
23.64,-0.03,-0.09,-0.03,0.10
23.65,-0.03,-0.08,-0.02,0.08
23.66,-0.04,-0.06,-0.01,0.07
23.67,-0.05,-0.05,0.00,0.07
23.68,-0.06,-0.05,0.00,0.07
23.69,-0.06,-0.04,0.01,0.07
23.70,-0.05,-0.02,0.01,0.06
23.71,-0.04,-0.01,0.02,0.05
23.72,-0.04,0.01,0.04,0.05
23.73,-0.03,0.02,0.06,0.07
23.74,-0.04,0.02,0.07,0.08
23.75,-0.04,0.01,0.08,0.09
23.76,-0.04,0.00,0.07,0.08
23.77,-0.04,0.00,0.06,0.07
23.78,-0.03,0.00,0.03,0.05
23.79,-0.03,0.01,0.00,0.03
23.80,-0.02,0.03,-0.02,0.04
23.81,-0.02,0.04,-0.03,0.05
23.82,-0.01,0.04,-0.03,0.05
23.83,-0.01,0.02,-0.02,0.03
23.84,-0.01,0.00,-0.01,0.02
23.85,0.00,-0.01,-0.01,0.02
23.86,0.02,-0.02,-0.01,0.03
23.87,0.03,-0.03,-0.02,0.05
23.88,0.04,-0.03,-0.04,0.07
23.89,0.04,-0.03,-0.05,0.07
23.90,0.03,-0.02,-0.06,0.07
23.91,0.03,-0.01,-0.07,0.07
23.92,0.02,0.00,-0.07,0.08
23.93,0.02,-0.01,-0.08,0.08
23.94,0.02,-0.01,-0.08,0.08
23.95,0.01,-0.03,-0.07,0.08
23.96,0.01,-0.04,-0.07,0.08
23.97,0.00,-0.04,-0.06,0.07
23.98,-0.01,-0.04,-0.04,0.06
23.99,-0.01,-0.04,-0.03,0.06
24.00,-0.01,-0.05,-0.03,0.06
24.01,0.00,-0.05,-0.03,0.06
24.02,0.02,-0.05,-0.04,0.06
24.03,0.03,-0.05,-0.04,0.07
24.04,0.04,-0.05,-0.05,0.08
24.05,0.04,-0.05,-0.05,0.08
24.06,0.03,-0.04,-0.04,0.07
24.07,0.00,-0.04,-0.03,0.05
24.08,-0.02,-0.04,0.00,0.04
24.09,-0.04,-0.02,0.01,0.05
24.10,-0.05,-0.01,0.02,0.05
24.11,-0.04,-0.01,0.03,0.05
24.12,-0.02,-0.01,0.02,0.03
24.13,0.00,-0.01,0.01,0.02
24.14,0.01,-0.01,0.00,0.02
24.15,0.01,-0.01,0.01,0.02
24.16,-0.01,0.00,0.02,0.02
24.17,-0.03,0.01,0.03,0.05
24.18,-0.05,0.00,0.04,0.06
24.19,-0.04,0.01,0.04,0.06
24.20,-0.01,0.02,0.03,0.03
24.21,0.02,0.02,0.01,0.03
24.22,0.04,0.02,0.00,0.04
24.23,0.03,0.02,0.00,0.04
24.24,0.01,0.01,0.00,0.02
24.25,-0.01,0.01,0.01,0.02
24.26,-0.02,0.01,0.01,0.03
24.27,-0.01,0.02,0.00,0.02
24.28,0.02,0.02,0.00,0.03
24.29,0.05,0.02,-0.01,0.05
24.30,0.06,0.02,-0.01,0.07
24.31,0.06,0.02,-0.01,0.07
24.32,0.05,0.02,0.00,0.05
24.33,0.04,0.03,0.00,0.05
24.34,0.05,0.04,-0.01,0.06
24.35,0.06,0.04,-0.03,0.08
24.36,0.07,0.05,-0.03,0.09
24.37,0.09,0.05,-0.02,0.10
24.38,0.11,0.04,-0.03,0.12
24.39,0.12,0.04,-0.02,0.13
24.40,0.11,0.03,-0.02,0.12
24.41,0.08,0.02,-0.01,0.08
24.42,0.04,0.01,-0.01,0.05
24.43,0.03,0.01,-0.02,0.04
24.44,0.04,0.02,-0.04,0.06
24.45,0.06,0.03,-0.06,0.09
24.46,0.09,0.03,-0.08,0.12
24.47,0.11,0.02,-0.08,0.14
24.48,0.13,0.00,-0.07,0.15
24.49,0.14,-0.01,-0.07,0.15
24.50,0.13,-0.01,-0.06,0.15
24.51,0.12,-0.01,-0.05,0.13
24.52,0.11,0.00,-0.04,0.12
24.53,0.09,0.00,-0.04,0.10
24.54,0.06,0.00,-0.04,0.07
24.55,0.05,0.00,-0.04,0.07
24.56,0.05,0.01,-0.05,0.07
24.57,0.07,0.01,-0.05,0.08
24.58,0.07,0.01,-0.05,0.09
24.59,0.07,-0.01,-0.04,0.08
24.60,0.06,-0.02,-0.03,0.07
24.61,0.06,-0.02,-0.03,0.07
24.62,0.07,-0.01,-0.03,0.07
24.63,0.08,-0.01,-0.04,0.09
24.64,0.07,-0.02,-0.04,0.08
24.65,0.06,-0.02,-0.03,0.07
24.66,0.04,-0.02,-0.03,0.05
24.67,0.03,-0.02,-0.02,0.04
24.68,0.02,-0.02,-0.02,0.03
24.69,0.02,-0.02,-0.02,0.03
24.70,0.01,-0.02,-0.02,0.03
24.71,0.02,-0.03,-0.02,0.04
24.72,0.02,-0.03,-0.01,0.04
24.73,0.02,-0.04,-0.02,0.05
24.74,0.03,-0.06,-0.02,0.07
24.75,0.04,-0.05,-0.02,0.07
24.76,0.04,-0.06,-0.02,0.07
24.77,0.03,-0.05,-0.02,0.06
24.78,0.01,-0.06,-0.02,0.06
24.79,-0.01,-0.08,-0.01,0.08
24.80,-0.02,-0.06,-0.01,0.07
24.81,-0.02,-0.05,-0.01,0.06
24.82,0.00,-0.04,-0.02,0.04
24.83,0.03,-0.02,-0.04,0.06
24.84,0.05,-0.02,-0.05,0.08
24.85,0.05,-0.01,-0.05,0.08
24.86,0.05,0.00,-0.04,0.07
24.87,0.06,0.01,-0.04,0.07
24.88,0.06,0.01,-0.05,0.08
24.89,0.06,0.02,-0.06,0.08
24.90,0.05,0.01,-0.07,0.09
24.91,0.04,0.01,-0.07,0.09
24.92,0.04,0.01,-0.08,0.09
24.93,0.05,0.01,-0.09,0.10
24.94,0.05,0.00,-0.09,0.10
24.95,0.06,0.00,-0.09,0.10
24.96,0.07,0.00,-0.08,0.11
24.97,0.08,0.00,-0.08,0.11
24.98,0.09,-0.01,-0.07,0.11
24.99,0.09,-0.01,-0.06,0.11
25.00,0.09,0.00,-0.05,0.10
25.01,0.08,0.00,-0.04,0.09
25.02,0.07,-0.01,-0.03,0.08
25.03,0.05,-0.03,-0.02,0.06
25.04,0.01,-0.05,-0.01,0.06
25.05,-0.03,-0.06,-0.01,0.07
25.06,-0.05,-0.06,-0.01,0.08
25.07,-0.05,-0.06,-0.03,0.08
25.08,-0.03,-0.03,-0.03,0.06
25.09,0.00,0.00,-0.04,0.04
25.10,0.04,0.00,-0.05,0.06
25.11,0.06,0.00,-0.04,0.07
25.12,0.07,0.00,-0.04,0.08
25.13,0.09,-0.01,-0.03,0.10
25.14,0.10,-0.02,-0.03,0.11
25.15,0.11,-0.02,-0.03,0.12
25.16,0.10,-0.02,-0.03,0.10
25.17,0.08,-0.02,-0.04,0.09
25.18,0.06,-0.01,-0.04,0.07
25.19,0.03,0.01,-0.04,0.06
25.20,0.02,0.02,-0.05,0.05
25.21,0.02,0.01,-0.04,0.05
25.22,0.02,0.00,-0.04,0.04
25.23,0.04,0.00,-0.03,0.05
25.24,0.05,0.00,-0.02,0.06
25.25,0.05,0.01,-0.01,0.06
25.26,0.04,0.01,-0.01,0.04
25.27,0.01,0.01,-0.01,0.02
25.28,-0.02,0.01,-0.01,0.03
25.29,-0.06,0.02,-0.01,0.06
25.30,-0.08,0.02,-0.02,0.09
25.31,-0.11,0.00,-0.02,0.11
25.32,-0.12,-0.03,-0.02,0.12
25.33,-0.12,-0.04,-0.01,0.12
25.34,-0.10,-0.02,-0.01,0.10
25.35,-0.07,-0.03,-0.01,0.08
25.36,-0.06,-0.03,-0.02,0.07
25.37,-0.04,-0.03,-0.02,0.06
25.38,-0.02,-0.02,-0.02,0.04
25.39,-0.01,-0.01,-0.02,0.02
25.40,0.00,-0.02,-0.02,0.02
25.41,0.00,-0.02,0.00,0.02
25.42,0.01,-0.02,0.00,0.03
25.43,0.02,-0.02,-0.01,0.03
25.44,0.03,0.00,-0.01,0.03
25.45,0.04,0.02,-0.02,0.05
25.46,0.05,0.04,-0.04,0.07
25.47,0.02,0.06,-0.03,0.07
25.48,0.00,0.06,-0.02,0.07
25.49,-0.01,0.05,0.00,0.05
25.50,-0.01,0.03,0.01,0.03
25.51,0.01,0.00,0.02,0.02
25.52,0.02,-0.02,0.02,0.04
25.53,0.03,-0.05,0.01,0.06
25.54,0.03,-0.06,0.00,0.06
25.55,0.02,-0.04,-0.02,0.05
25.56,0.01,-0.02,-0.03,0.04
25.57,0.00,-0.01,-0.03,0.03
25.58,-0.01,0.00,-0.02,0.02
25.59,0.01,0.01,0.00,0.01
25.60,0.03,0.00,0.02,0.04
25.61,0.08,-0.01,0.03,0.08
25.62,0.11,-0.03,0.04,0.12
25.63,0.13,-0.03,0.03,0.13
25.64,0.10,-0.04,0.03,0.11
25.65,0.06,-0.02,0.03,0.07
25.66,0.02,0.00,0.01,0.02
25.67,0.00,0.02,-0.01,0.02
25.68,0.01,0.02,-0.03,0.04
25.69,0.02,0.01,-0.05,0.05
25.70,0.04,0.01,-0.05,0.06
25.71,0.05,0.01,-0.03,0.06
25.72,0.06,0.01,-0.01,0.06
25.73,0.06,0.00,0.00,0.06
25.74,0.07,-0.01,0.01,0.07
25.75,0.06,-0.02,0.01,0.07
25.76,0.05,-0.03,-0.01,0.06
25.77,0.05,-0.02,-0.02,0.05
25.78,0.05,0.00,-0.04,0.06
25.79,0.03,0.02,-0.04,0.06
25.80,0.02,0.02,-0.05,0.06
25.81,0.03,0.02,-0.06,0.07
25.82,0.05,0.01,-0.06,0.08
25.83,0.07,-0.01,-0.05,0.09
25.84,0.08,-0.02,-0.03,0.09
25.85,0.09,-0.03,-0.02,0.09
25.86,0.09,-0.03,0.00,0.10
25.87,0.10,-0.02,0.00,0.10
25.88,0.09,-0.01,0.00,0.09
25.89,0.08,-0.01,-0.01,0.08
25.90,0.08,0.01,-0.03,0.08
25.91,0.09,0.02,-0.04,0.10
25.92,0.11,0.04,-0.05,0.13
25.93,0.14,0.05,-0.04,0.16
25.94,0.16,0.06,-0.02,0.17
25.95,0.15,0.04,0.01,0.16
25.96,0.13,0.02,0.04,0.14
25.97,0.11,0.01,0.05,0.12
25.98,0.10,0.00,0.04,0.11
25.99,0.10,-0.01,0.03,0.10
26.00,0.09,-0.01,0.02,0.09
26.01,0.08,0.01,0.00,0.08
26.02,0.07,0.03,0.00,0.08
26.03,0.06,0.04,0.00,0.07
26.04,0.04,0.05,0.00,0.06
26.05,0.02,0.04,0.01,0.04
26.06,0.03,0.01,0.01,0.03
26.07,0.05,0.00,0.00,0.05
26.08,0.06,-0.01,-0.01,0.07
26.09,0.07,-0.02,-0.02,0.07
26.10,0.06,-0.04,-0.03,0.08
26.11,0.05,-0.03,-0.04,0.07
26.12,0.04,-0.01,-0.05,0.06
26.13,0.04,0.00,-0.04,0.05
26.14,0.03,0.00,-0.03,0.05
26.15,0.03,-0.01,-0.02,0.04
26.16,0.03,-0.03,-0.02,0.05
26.17,0.04,-0.04,-0.02,0.06
26.18,0.05,-0.04,-0.03,0.07
26.19,0.06,-0.04,-0.04,0.08
26.20,0.07,-0.03,-0.06,0.09
26.21,0.07,-0.01,-0.07,0.10
26.22,0.07,0.01,-0.08,0.11
26.23,0.07,0.02,-0.08,0.10
26.24,0.07,0.03,-0.07,0.10
26.25,0.06,0.02,-0.05,0.08
26.26,0.05,0.02,-0.02,0.06
26.27,0.05,0.01,-0.01,0.05
26.28,0.07,0.01,0.00,0.07
26.29,0.10,0.01,0.00,0.10
26.30,0.13,0.01,-0.01,0.13
26.31,0.15,0.02,-0.02,0.15
26.32,0.17,0.03,-0.03,0.17
26.33,0.15,0.05,-0.03,0.16
26.34,0.12,0.07,-0.03,0.14
26.35,0.08,0.07,-0.03,0.11
26.36,0.07,0.06,-0.03,0.10
26.37,0.06,0.05,-0.03,0.09
26.38,0.08,0.03,-0.03,0.09
26.39,0.10,0.02,-0.03,0.11
26.40,0.12,0.01,-0.02,0.12
26.41,0.11,0.00,0.00,0.11
26.42,0.08,-0.01,0.02,0.08
26.43,0.06,-0.01,0.03,0.07
26.44,0.05,-0.01,0.03,0.05
26.45,0.05,0.00,0.01,0.05
26.46,0.05,0.02,-0.01,0.05
26.47,0.05,0.03,-0.02,0.06
26.48,0.04,0.04,-0.03,0.06
26.49,0.03,0.04,-0.03,0.06
26.50,0.02,0.03,-0.03,0.05
26.51,0.03,0.02,-0.01,0.04
26.52,0.04,0.01,0.00,0.04
26.53,0.06,-0.01,0.01,0.07
26.54,0.08,-0.03,0.01,0.09
26.55,0.09,-0.03,0.00,0.09
26.56,0.08,-0.02,-0.01,0.08
26.57,0.06,0.01,-0.01,0.06
26.58,0.06,0.04,-0.03,0.08
26.59,0.07,0.05,-0.03,0.09
26.60,0.08,0.05,-0.03,0.10
26.61,0.08,0.04,-0.02,0.09
26.62,0.07,0.01,-0.01,0.08
26.63,0.08,-0.01,-0.01,0.08
26.64,0.08,-0.01,-0.01,0.08
26.65,0.07,0.00,-0.01,0.07
26.66,0.05,0.01,-0.02,0.06
26.67,0.03,0.02,-0.02,0.05
26.68,0.01,0.04,-0.02,0.05
26.69,0.02,0.04,-0.03,0.05
26.70,0.04,0.03,-0.03,0.06
26.71,0.05,0.02,-0.02,0.06
26.72,0.05,0.01,-0.01,0.05
26.73,0.04,0.00,-0.01,0.05
26.74,0.03,-0.01,-0.01,0.03
26.75,0.01,0.00,-0.02,0.02
26.76,0.02,0.01,-0.03,0.03
26.77,0.03,0.02,-0.05,0.06
26.78,0.04,0.02,-0.05,0.07
26.79,0.05,0.03,-0.04,0.07
26.80,0.06,0.02,-0.03,0.07
26.81,0.08,0.01,-0.03,0.08
26.82,0.10,0.00,-0.02,0.10
26.83,0.12,-0.01,-0.02,0.12
26.84,0.11,-0.02,-0.03,0.12
26.85,0.10,-0.01,-0.03,0.10
26.86,0.08,-0.01,-0.04,0.09
26.87,0.07,0.02,-0.05,0.08
26.88,0.07,0.03,-0.05,0.09
26.89,0.10,0.04,-0.04,0.11
26.90,0.12,0.06,-0.03,0.14
26.91,0.13,0.07,0.00,0.15
26.92,0.14,0.06,0.02,0.16
26.93,0.16,0.04,0.03,0.17
26.94,0.17,0.05,0.03,0.18
26.95,0.19,0.06,0.02,0.20
26.96,0.18,0.06,0.00,0.19
26.97,0.15,0.06,-0.01,0.17
26.98,0.11,0.08,-0.02,0.14
26.99,0.09,0.11,-0.03,0.14
27.00,0.08,0.10,-0.04,0.13
27.01,0.09,0.12,-0.04,0.16
27.02,0.11,0.11,-0.03,0.16
27.03,0.12,0.09,-0.02,0.15
27.04,0.12,0.08,-0.01,0.14
27.05,0.11,0.07,0.00,0.13
27.06,0.09,0.06,-0.01,0.11
27.07,0.08,0.05,-0.02,0.10
27.08,0.07,0.06,-0.03,0.10
27.09,0.07,0.06,-0.03,0.09
27.10,0.05,0.05,-0.04,0.09
27.11,0.04,0.07,-0.03,0.08
27.12,0.02,0.07,-0.02,0.07
27.13,0.01,0.06,0.00,0.06
27.14,0.02,0.05,0.00,0.05
27.15,0.04,0.04,0.01,0.06
27.16,0.06,0.02,0.01,0.06
27.17,0.07,0.01,0.01,0.07
27.18,0.07,0.01,0.01,0.07
27.19,0.06,0.00,0.02,0.06
27.20,0.04,0.01,0.01,0.05
27.21,0.04,0.01,0.01,0.04
27.22,0.04,0.03,0.00,0.05
27.23,0.06,0.05,-0.02,0.08
27.24,0.07,0.06,-0.02,0.10
27.25,0.09,0.08,-0.03,0.13
27.26,0.11,0.09,-0.03,0.15
27.27,0.13,0.09,-0.02,0.16
27.28,0.14,0.08,-0.01,0.16
27.29,0.14,0.06,0.00,0.15
27.30,0.13,0.05,0.00,0.14
27.31,0.13,0.04,0.00,0.13
27.32,0.14,0.06,-0.01,0.16
27.33,0.15,0.09,-0.02,0.18
27.34,0.14,0.12,-0.03,0.18
27.35,0.11,0.12,-0.03,0.17
27.36,0.09,0.13,-0.03,0.16
27.37,0.08,0.12,-0.04,0.15
27.38,0.10,0.11,-0.04,0.15
27.39,0.13,0.10,-0.05,0.17
27.40,0.16,0.09,-0.04,0.19
27.41,0.18,0.08,-0.04,0.20
27.42,0.18,0.09,-0.03,0.20
27.43,0.18,0.11,-0.03,0.21
27.44,0.14,0.07,-0.02,0.16
27.45,0.10,0.09,0.01,0.13
27.46,0.06,0.10,0.02,0.12
27.47,0.04,0.09,0.03,0.11
27.48,0.04,0.10,0.04,0.11
27.49,0.07,0.09,0.04,0.12
27.50,0.10,0.07,0.03,0.13
27.51,0.12,0.05,0.03,0.13
27.52,0.12,0.03,0.02,0.12
27.53,0.11,0.03,0.01,0.12
27.54,0.10,0.04,0.00,0.11
27.55,0.08,0.06,-0.01,0.11
27.56,0.06,0.09,-0.01,0.11
27.57,0.05,0.08,-0.02,0.09
27.58,0.06,0.07,-0.02,0.09
27.59,0.09,0.05,-0.02,0.10
27.60,0.13,0.03,-0.02,0.13
27.61,0.17,0.01,-0.01,0.17
27.62,0.20,0.01,-0.01,0.20
27.63,0.23,0.02,0.00,0.23
27.64,0.24,0.03,0.01,0.24
27.65,0.24,0.05,0.02,0.25
27.65,0.25,0.06,0.02,0.26
27.66,0.24,0.07,0.01,0.25
27.67,0.21,0.06,0.01,0.22
27.68,0.18,0.07,0.00,0.19
27.69,0.14,0.06,-0.01,0.15
27.70,0.12,0.05,-0.04,0.13
27.71,0.10,0.06,-0.05,0.13
27.72,0.09,0.06,-0.06,0.12
27.73,0.09,0.06,-0.06,0.12
27.74,0.10,0.06,-0.05,0.13
27.75,0.11,0.06,-0.03,0.13
27.76,0.12,0.04,-0.01,0.13
27.77,0.12,0.02,0.01,0.12
27.78,0.10,0.00,0.02,0.11
27.79,0.09,0.00,0.02,0.10
27.80,0.09,0.00,0.00,0.09
27.81,0.09,0.03,-0.01,0.10
27.82,0.09,0.04,-0.03,0.10
27.83,0.09,0.04,-0.04,0.10
27.84,0.08,0.04,-0.04,0.10
27.85,0.08,0.03,-0.04,0.09
27.86,0.08,0.01,-0.04,0.09
27.87,0.09,0.00,-0.03,0.09
27.88,0.09,0.00,-0.03,0.10
27.89,0.09,0.00,-0.01,0.09
27.90,0.08,0.01,0.00,0.08
27.91,0.08,0.02,0.00,0.08
27.92,0.10,0.03,-0.01,0.10
27.93,0.11,0.04,-0.01,0.11
27.94,0.09,0.04,-0.01,0.10
27.95,0.06,0.03,-0.01,0.07
27.96,0.03,0.02,-0.01,0.04
27.97,0.02,0.03,-0.02,0.04
27.98,0.03,0.03,-0.02,0.05
27.99,0.06,0.04,-0.03,0.08
28.00,0.08,0.03,-0.03,0.09
28.01,0.10,0.02,-0.02,0.11
28.02,0.13,0.02,-0.02,0.13
28.03,0.13,0.03,-0.01,0.13
28.04,0.11,0.02,0.01,0.11
28.05,0.07,0.01,0.01,0.08
28.06,0.04,0.00,0.01,0.04
28.07,0.01,0.00,0.00,0.01
28.08,0.00,0.01,-0.01,0.01
28.09,0.00,0.02,-0.02,0.03
28.10,0.02,0.03,-0.02,0.04
28.11,0.05,0.02,-0.03,0.06
28.12,0.09,0.02,-0.03,0.09
28.13,0.12,0.02,-0.03,0.13
28.14,0.15,0.00,-0.03,0.15
28.15,0.16,-0.01,-0.04,0.16
28.16,0.15,-0.01,-0.04,0.15
28.17,0.12,-0.03,-0.05,0.13
28.18,0.10,-0.01,-0.04,0.11
28.19,0.09,-0.01,-0.04,0.10
28.20,0.10,-0.01,-0.05,0.11
28.21,0.12,0.01,-0.04,0.12
28.22,0.13,0.01,-0.04,0.13
28.23,0.15,0.02,-0.02,0.15
28.24,0.16,0.04,-0.01,0.17
28.25,0.19,0.04,-0.01,0.20
28.26,0.21,0.04,-0.02,0.21
28.27,0.19,0.02,-0.02,0.19
28.28,0.14,0.02,-0.03,0.15
28.29,0.11,0.11,-0.04,0.16
28.30,0.08,0.05,-0.04,0.10
28.31,0.04,0.03,-0.03,0.06
28.32,0.05,0.04,-0.03,0.07
28.33,0.07,0.01,-0.03,0.08
28.34,0.10,-0.01,-0.02,0.11
28.35,0.14,-0.02,-0.01,0.14
28.36,0.15,-0.05,-0.01,0.16
28.37,0.14,-0.05,-0.02,0.15
28.38,0.10,-0.05,-0.04,0.12
28.39,0.06,-0.03,-0.05,0.09
28.40,0.03,-0.01,-0.08,0.08
28.41,0.01,0.01,-0.09,0.09
28.42,0.01,0.02,-0.10,0.10
28.43,0.01,0.02,-0.09,0.09
28.44,0.02,0.01,-0.08,0.08
28.45,0.04,0.00,-0.06,0.07
28.46,0.05,0.01,-0.04,0.06
28.47,0.05,-0.03,-0.02,0.06
28.48,0.04,-0.04,0.01,0.06
28.49,0.03,-0.04,0.02,0.05
28.50,0.01,-0.04,0.01,0.05
28.51,0.00,-0.02,0.00,0.02
28.52,0.00,0.01,-0.02,0.02
28.53,0.00,0.02,-0.04,0.04
28.54,0.01,0.03,-0.05,0.06
28.55,0.02,0.03,-0.06,0.07
28.56,0.02,0.04,-0.05,0.07
28.57,0.03,0.04,-0.03,0.06
28.58,0.04,0.03,-0.02,0.06
28.59,0.06,0.03,-0.01,0.06
28.60,0.07,0.02,0.01,0.07
28.61,0.07,0.02,0.02,0.08
28.62,0.08,0.03,0.02,0.09
28.63,0.10,0.03,0.02,0.10
28.64,0.11,0.03,0.01,0.11
28.65,0.12,0.04,0.00,0.13
28.66,0.13,0.04,-0.02,0.14
28.67,0.15,0.05,-0.03,0.16
28.68,0.16,0.06,-0.03,0.17
28.69,0.16,0.07,-0.04,0.18
28.70,0.15,0.06,-0.04,0.17
28.71,0.14,0.08,-0.04,0.16
28.72,0.12,0.07,-0.04,0.15
28.73,0.09,0.05,-0.04,0.11
28.74,0.06,0.05,-0.02,0.09
28.75,0.03,0.03,-0.02,0.05
28.76,0.01,0.02,-0.01,0.02
28.77,0.01,0.01,-0.01,0.02
28.78,0.01,0.01,-0.01,0.02
28.79,0.02,0.00,-0.01,0.02
28.80,0.02,-0.01,0.00,0.02
28.81,0.02,-0.02,0.01,0.03
28.82,0.02,-0.03,0.01,0.04
28.83,0.03,-0.04,0.01,0.05
28.84,0.04,-0.04,0.01,0.05
28.85,0.04,-0.03,0.00,0.05
28.86,0.04,-0.02,-0.02,0.04
28.87,0.03,0.01,-0.02,0.04
28.88,0.02,0.03,-0.03,0.05
28.89,0.03,0.04,-0.03,0.06
28.90,0.03,0.04,-0.02,0.05
28.91,0.02,0.02,-0.01,0.03
28.92,0.03,-0.01,0.00,0.03
28.93,0.02,-0.02,0.01,0.03
28.94,0.02,-0.03,0.01,0.04
28.95,0.02,-0.03,0.01,0.04
28.96,0.02,-0.03,0.00,0.03
28.97,0.02,-0.02,-0.01,0.03
28.98,0.01,-0.01,-0.02,0.03
28.99,0.01,0.00,-0.03,0.03
29.00,0.01,0.01,-0.04,0.04
29.01,0.02,0.01,-0.05,0.05
29.02,0.03,0.01,-0.05,0.06
29.03,0.04,0.00,-0.06,0.07
29.04,0.04,-0.01,-0.06,0.07
29.05,0.04,-0.02,-0.06,0.07
29.06,0.04,-0.01,-0.06,0.08
29.07,0.05,0.00,-0.07,0.09
29.08,0.07,0.02,-0.07,0.10
29.09,0.10,0.04,-0.07,0.13
29.10,0.13,0.05,-0.07,0.15
29.11,0.15,0.04,-0.07,0.18
29.12,0.16,0.06,-0.05,0.18
29.13,0.16,0.06,-0.04,0.18
29.14,0.18,0.08,-0.04,0.20
29.15,0.18,0.04,-0.05,0.20
29.16,0.18,0.06,-0.05,0.20
29.17,0.20,0.04,-0.04,0.21
29.18,0.26,0.03,0.01,0.26
29.19,0.28,-0.05,0.05,0.29
29.20,0.27,-0.07,0.08,0.29
29.21,0.27,-0.03,0.12,0.29
29.22,0.25,-0.06,0.13,0.29
29.23,0.21,-0.05,0.12,0.25
29.24,0.18,-0.01,0.10,0.21
29.25,0.14,-0.02,0.10,0.17
29.26,0.08,-0.02,0.07,0.11
29.27,0.04,0.01,0.03,0.05
29.28,0.02,0.01,-0.01,0.02
29.29,0.01,0.01,-0.04,0.04
29.30,0.03,-0.01,-0.07,0.08
29.31,0.07,-0.05,-0.09,0.13
29.32,0.11,-0.08,-0.10,0.17
29.33,0.13,-0.10,-0.10,0.19
29.34,0.15,-0.13,-0.08,0.21
29.35,0.16,-0.13,-0.07,0.22
29.36,0.17,-0.11,-0.07,0.22
29.37,0.18,-0.11,-0.09,0.22
29.38,0.17,-0.09,-0.10,0.22
29.39,0.15,-0.07,-0.12,0.20
29.40,0.11,-0.04,-0.13,0.18
29.41,0.10,-0.03,-0.14,0.17
29.42,0.09,-0.01,-0.15,0.18
29.43,0.11,-0.03,-0.15,0.19
29.44,0.13,-0.04,-0.15,0.20
29.45,0.17,-0.02,-0.14,0.22
29.46,0.20,-0.02,-0.13,0.24
29.47,0.22,-0.01,-0.10,0.24
29.48,0.22,0.02,-0.06,0.23
29.49,0.22,0.06,-0.03,0.23
29.50,0.23,0.06,0.01,0.24
29.51,0.23,-0.01,0.06,0.24
29.52,0.22,-0.07,0.07,0.24
29.53,0.24,-0.08,0.09,0.27
29.54,0.20,-0.12,0.08,0.24
29.55,0.16,-0.09,0.08,0.20
29.56,0.10,-0.08,0.07,0.15
29.57,0.03,-0.05,0.03,0.07
29.58,0.00,0.02,0.01,0.02
29.59,-0.02,0.03,-0.01,0.03
29.60,-0.03,0.02,-0.04,0.05
29.61,-0.01,0.01,-0.06,0.07
29.62,0.02,-0.01,-0.08,0.09
29.63,0.04,-0.02,-0.09,0.10
29.64,0.06,-0.03,-0.09,0.12
29.65,0.08,-0.05,-0.08,0.12
29.66,0.09,-0.05,-0.07,0.13
29.67,0.10,-0.05,-0.06,0.13
29.68,0.10,-0.05,-0.04,0.12
29.69,0.10,-0.03,-0.04,0.11
29.70,0.09,-0.01,-0.03,0.10
29.71,0.09,0.02,-0.04,0.10
29.72,0.07,0.00,-0.04,0.08
29.73,0.04,0.00,-0.04,0.06
29.74,0.03,0.00,-0.04,0.05
29.75,0.02,0.00,-0.04,0.04
29.76,0.02,0.01,-0.04,0.04
29.77,0.03,0.00,-0.03,0.04
29.78,0.04,0.00,-0.02,0.04
29.79,0.05,-0.01,-0.01,0.05
29.80,0.06,-0.01,-0.01,0.06
29.81,0.08,-0.02,-0.01,0.08
29.82,0.09,0.01,-0.01,0.09
29.83,0.10,0.05,-0.01,0.11
29.84,0.11,0.08,-0.03,0.14
29.85,0.09,0.07,-0.03,0.12
29.86,0.08,0.06,-0.02,0.10
29.87,0.08,0.05,-0.01,0.09
29.88,0.16,0.03,0.07,0.18
29.89,0.19,-0.10,0.10,0.23
29.90,0.23,-0.10,0.14,0.29
29.91,0.27,-0.11,0.15,0.33
29.92,0.29,-0.09,0.14,0.34
29.93,0.28,-0.04,0.13,0.31
29.94,0.25,-0.04,0.13,0.28
29.95,0.19,-0.04,0.11,0.22
29.96,0.16,-0.04,0.08,0.18
29.97,0.12,-0.04,0.03,0.13
29.98,0.10,-0.01,-0.03,0.11
29.99,0.09,0.07,-0.09,0.15
30.00,0.08,0.13,-0.13,0.20
30.01,0.12,0.18,-0.17,0.28
30.02,0.11,0.22,-0.19,0.31
30.03,0.17,0.20,-0.23,0.35
30.04,0.22,0.23,-0.24,0.40
30.05,0.26,0.22,-0.24,0.42
30.06,0.29,0.20,-0.23,0.42
30.07,0.30,0.19,-0.20,0.40
30.08,0.29,0.17,-0.16,0.37
30.09,0.29,0.15,-0.15,0.36
30.10,0.32,0.15,-0.14,0.38
30.11,0.35,0.13,-0.13,0.40
30.12,0.39,0.13,-0.13,0.43
30.13,0.44,0.09,-0.14,0.47
30.14,0.46,0.07,-0.11,0.48
30.15,0.50,0.08,-0.05,0.50
30.16,0.42,0.08,0.01,0.43
30.17,0.32,0.12,0.05,0.35
30.18,0.25,0.14,0.05,0.29
30.19,0.20,0.15,0.04,0.26
30.20,0.16,0.16,0.00,0.23
30.21,0.12,0.15,-0.04,0.19
30.22,0.10,0.16,-0.08,0.21
30.23,0.10,0.17,-0.11,0.23
30.24,0.11,0.17,-0.13,0.24
30.25,0.11,0.16,-0.14,0.24
30.26,0.09,0.16,-0.12,0.22
30.27,0.07,0.15,-0.09,0.19
30.28,0.04,0.11,-0.06,0.13
30.29,0.01,0.04,-0.02,0.05
30.30,-0.02,0.00,0.03,0.04
30.31,-0.05,-0.03,0.06,0.09
30.32,-0.09,-0.06,0.10,0.14
30.33,-0.15,-0.09,0.15,0.23
30.34,-0.20,-0.11,0.19,0.30
30.35,-0.23,-0.11,0.21,0.33
30.36,-0.24,-0.09,0.21,0.33
30.37,-0.24,-0.11,0.18,0.32
30.38,-0.26,-0.18,0.16,0.36
30.39,-0.30,-0.23,0.14,0.41
30.40,-0.33,-0.24,0.11,0.43
30.41,-0.35,-0.22,0.09,0.42
30.42,-0.35,-0.18,0.07,0.41
30.43,-0.35,-0.14,0.06,0.38
30.44,-0.34,-0.08,0.05,0.35
30.45,-0.33,-0.07,0.05,0.34
30.46,-0.32,-0.08,0.05,0.34
30.47,-0.34,-0.12,0.05,0.36
30.48,-0.34,-0.12,0.07,0.37
30.49,-0.35,-0.12,0.08,0.38
30.50,-0.40,-0.15,0.08,0.44
30.51,-0.45,-0.16,0.10,0.49
30.52,-0.48,-0.14,0.14,0.52
30.53,-0.52,-0.13,0.15,0.56
30.54,-0.59,-0.13,0.15,0.62
30.55,-0.59,-0.09,0.15,0.61
30.56,-0.58,-0.07,0.11,0.60
30.57,-0.60,-0.06,0.09,0.61
30.58,-0.63,-0.06,0.11,0.64
30.59,-0.70,-0.07,0.13,0.71
30.60,-0.76,-0.08,0.17,0.79
30.61,-0.81,-0.10,0.19,0.84
30.62,-0.82,-0.12,0.21,0.86
30.63,-0.84,-0.14,0.21,0.88
30.64,-0.84,-0.14,0.20,0.88
30.65,-0.87,-0.16,0.19,0.90
30.66,-0.88,-0.13,0.19,0.91
30.67,-0.89,-0.13,0.17,0.91
30.68,-0.88,-0.11,0.15,0.90
30.69,-0.88,-0.11,0.13,0.89
30.70,-0.84,-0.07,0.13,0.85
30.71,-0.81,-0.03,0.11,0.82
30.72,-0.78,0.01,0.11,0.79
30.73,-0.80,0.00,0.12,0.81
30.74,-0.83,0.01,0.14,0.84
30.75,-0.88,-0.03,0.17,0.89
30.76,-0.92,-0.09,0.19,0.95
30.77,-0.98,-0.13,0.24,1.01
30.78,-1.01,-0.15,0.31,1.07
30.79,-1.04,-0.20,0.38,1.13
30.80,-1.03,-0.26,0.44,1.16
30.81,-1.00,-0.33,0.48,1.15
30.82,-0.95,-0.39,0.46,1.12
30.83,-0.88,-0.38,0.41,1.04
30.84,-0.80,-0.33,0.34,0.93
30.85,-0.75,-0.27,0.25,0.84
30.86,-0.74,-0.20,0.17,0.79
30.87,-0.74,-0.14,0.09,0.76
30.88,-0.75,-0.10,0.04,0.76
30.89,-0.77,-0.09,-0.01,0.77
30.90,-0.77,-0.07,-0.04,0.78
30.91,-0.82,-0.09,-0.04,0.82
30.92,-0.83,-0.13,-0.03,0.85
30.93,-0.82,-0.17,-0.01,0.84
30.94,-0.77,-0.18,0.00,0.79
30.95,-0.69,-0.22,0.03,0.72
30.96,-0.60,-0.24,0.06,0.65
30.97,-0.51,-0.26,0.10,0.58
30.98,-0.44,-0.28,0.12,0.53
30.99,-0.41,-0.29,0.13,0.52
31.00,-0.40,-0.26,0.14,0.50
31.01,-0.39,-0.21,0.14,0.46
31.02,-0.37,-0.16,0.13,0.43
31.03,-0.35,-0.13,0.11,0.39
31.04,-0.32,-0.10,0.09,0.35
31.05,-0.26,-0.07,0.08,0.28
31.06,-0.21,-0.06,0.07,0.23
31.07,-0.14,-0.04,0.07,0.16
31.08,-0.07,-0.03,0.05,0.09
31.09,-0.01,-0.02,0.04,0.05
31.10,-0.02,-0.02,0.03,0.04
31.11,-0.07,-0.01,0.03,0.08
31.12,-0.14,0.02,0.03,0.14
31.13,-0.17,0.05,0.01,0.18
31.14,-0.18,0.09,0.01,0.20
31.15,-0.16,0.10,0.01,0.19
31.16,-0.10,0.09,0.02,0.14
31.17,-0.03,0.08,0.02,0.09
31.18,0.05,0.06,0.03,0.09
31.19,0.13,0.02,0.04,0.14
31.20,0.17,-0.02,0.05,0.18
31.21,0.18,-0.04,0.06,0.20
31.22,0.16,-0.05,0.06,0.17
31.23,0.09,-0.05,0.05,0.11
31.24,0.03,-0.03,0.03,0.05
31.25,0.00,0.01,-0.02,0.03
31.26,-0.01,0.04,-0.09,0.10
31.27,-0.01,0.05,-0.14,0.15
31.28,0.01,0.04,-0.18,0.18
31.29,0.03,0.01,-0.20,0.20
31.30,0.06,-0.02,-0.19,0.20
31.31,0.09,-0.06,-0.15,0.19
31.32,0.10,-0.09,-0.10,0.16
31.33,0.10,-0.12,-0.04,0.16
31.34,0.09,-0.13,0.00,0.16
31.35,0.08,-0.12,0.02,0.14
31.36,0.07,-0.09,0.02,0.11
31.37,0.06,-0.06,-0.01,0.09
31.38,0.05,-0.03,-0.06,0.08
31.39,0.05,-0.01,-0.09,0.11
31.40,0.05,0.02,-0.12,0.13
31.41,0.05,0.05,-0.13,0.15
31.42,0.05,0.06,-0.12,0.15
31.43,0.06,0.06,-0.11,0.14
31.44,0.09,0.06,-0.09,0.14
31.45,0.11,0.06,-0.07,0.15
31.46,0.14,0.05,-0.04,0.15
31.47,0.16,0.04,-0.04,0.16
31.48,0.16,0.02,-0.04,0.17
31.49,0.15,0.01,-0.06,0.16
31.50,0.13,0.03,-0.07,0.15
31.51,0.11,0.04,-0.08,0.14
31.52,0.09,0.07,-0.08,0.14
31.53,0.08,0.10,-0.08,0.15
31.54,0.07,0.12,-0.06,0.15
31.55,0.05,0.13,-0.04,0.15
31.56,0.03,0.13,-0.02,0.14
31.57,0.02,0.12,0.00,0.13
31.58,0.00,0.10,0.01,0.10
31.59,-0.01,0.08,0.02,0.08
31.60,-0.01,0.07,0.03,0.07
31.61,-0.01,0.08,0.02,0.09
31.62,-0.01,0.11,0.01,0.11
31.63,-0.08,0.16,-0.05,0.19
31.64,-0.15,0.33,-0.13,0.38
31.65,-0.18,0.38,-0.16,0.45
31.66,-0.20,0.37,-0.18,0.46
31.67,-0.20,0.38,-0.19,0.47
31.68,-0.21,0.35,-0.19,0.45
31.69,-0.24,0.29,-0.17,0.41
31.70,-0.28,0.24,-0.14,0.39
31.71,-0.29,0.19,-0.07,0.35
31.72,-0.28,0.11,-0.02,0.30
31.73,-0.23,0.06,0.03,0.24
31.74,-0.15,-0.01,0.08,0.17
31.75,-0.08,-0.07,0.09,0.14
31.76,-0.02,-0.09,0.09,0.13
31.77,0.01,-0.03,0.07,0.08
31.78,-0.02,-0.15,0.05,0.16
31.79,-0.06,0.04,0.03,0.07
31.80,-0.18,-0.06,-0.02,0.19
31.81,-0.22,-0.02,-0.07,0.23
31.82,-0.23,0.04,-0.11,0.26
31.83,-0.20,0.05,-0.13,0.25
31.84,-0.19,-0.02,-0.13,0.23
31.85,-0.20,-0.03,-0.09,0.22
31.86,-0.21,-0.09,-0.05,0.23
31.87,-0.21,-0.13,-0.01,0.24
31.88,-0.18,-0.14,0.00,0.23
31.89,-0.13,-0.16,0.00,0.21
31.90,-0.08,-0.14,-0.02,0.16
31.91,-0.05,-0.10,-0.03,0.12
31.92,-0.04,-0.06,-0.05,0.09
31.93,-0.05,-0.01,-0.06,0.08
31.94,-0.06,0.05,-0.07,0.11
31.95,-0.08,0.07,-0.07,0.13
31.96,-0.09,0.06,-0.05,0.12
31.97,-0.07,0.02,-0.04,0.08
31.98,-0.03,-0.03,-0.03,0.06
31.99,-0.02,-0.09,-0.02,0.09
32.00,-0.01,-0.13,-0.01,0.13
32.01,-0.02,-0.13,0.00,0.13
32.02,-0.03,-0.11,0.01,0.11
32.03,-0.03,-0.07,0.00,0.07
32.04,-0.04,-0.02,0.00,0.04
32.05,-0.08,0.00,-0.01,0.08
32.06,-0.12,0.01,-0.02,0.13
32.07,-0.16,-0.01,-0.03,0.16
32.08,-0.16,-0.05,-0.03,0.17
32.09,-0.13,-0.08,-0.03,0.16
32.10,-0.09,-0.12,-0.02,0.15
32.11,-0.05,-0.12,-0.01,0.13
32.12,-0.01,-0.10,0.01,0.10
32.13,0.02,-0.08,0.03,0.08
32.14,0.02,-0.06,0.04,0.08
32.15,0.01,-0.05,0.06,0.08
32.16,0.01,-0.04,0.06,0.08
32.17,0.02,-0.02,0.06,0.07
32.18,0.03,-0.01,0.06,0.06
32.19,0.04,-0.01,0.05,0.06
32.20,0.06,0.00,0.04,0.07
32.21,0.07,0.01,0.04,0.08
32.22,0.06,0.01,0.05,0.08
32.23,0.02,0.01,0.06,0.06
32.24,0.00,0.01,0.07,0.07
32.25,0.01,0.02,0.07,0.08
32.26,0.03,0.02,0.06,0.07
32.27,0.04,0.01,0.06,0.07
32.28,0.04,0.03,0.06,0.08
32.29,0.04,0.02,0.08,0.09
32.30,0.05,0.01,0.08,0.10
32.31,0.06,0.01,0.09,0.11
32.32,0.08,0.02,0.08,0.12
32.33,0.08,0.02,0.07,0.11
32.34,0.03,-0.01,0.07,0.07
32.35,0.00,-0.02,0.06,0.06
32.36,0.00,-0.02,0.04,0.05
32.37,0.01,-0.01,0.03,0.03
32.38,0.02,-0.01,0.03,0.04
32.39,0.02,-0.03,0.04,0.05
32.40,0.04,-0.04,0.04,0.07
32.41,0.05,-0.04,0.04,0.08
32.42,0.08,-0.03,0.04,0.10
32.43,0.11,-0.02,0.03,0.12
32.44,0.12,-0.01,0.02,0.12
32.45,0.09,-0.01,0.01,0.09
32.46,0.04,-0.01,0.01,0.04
32.47,-0.01,-0.01,0.01,0.02
32.48,-0.03,0.00,0.01,0.03
32.49,-0.02,0.00,0.00,0.02
32.50,0.01,0.00,0.00,0.01
32.51,0.04,-0.01,-0.01,0.05
32.52,0.05,-0.04,0.00,0.06
32.53,0.04,-0.07,0.01,0.08
32.54,0.04,-0.08,0.03,0.09
32.55,0.05,-0.08,0.03,0.09
32.56,0.06,-0.06,0.03,0.09
32.57,0.07,-0.04,0.02,0.08
32.58,0.06,-0.01,0.02,0.07
32.59,0.07,0.02,0.00,0.07
32.60,0.08,0.05,-0.02,0.09
32.61,0.09,0.07,-0.04,0.12
32.62,0.08,0.07,-0.05,0.12
32.63,0.06,0.07,-0.04,0.10
32.64,0.04,0.08,-0.02,0.09
32.65,0.03,0.08,0.00,0.09
32.66,0.04,0.08,0.02,0.10
32.67,0.06,0.07,0.03,0.10
32.68,0.06,0.05,0.03,0.08
32.69,0.05,0.03,0.03,0.07
32.70,0.04,0.02,0.03,0.05
32.71,0.04,0.03,0.01,0.05
32.72,0.04,0.05,-0.01,0.06
32.73,0.04,0.06,-0.03,0.08
32.74,0.05,0.05,-0.05,0.09
32.75,0.03,0.03,-0.07,0.08
32.76,0.02,0.01,-0.07,0.08
32.77,0.00,0.01,-0.07,0.07
32.78,0.01,-0.01,-0.06,0.06
32.79,0.02,-0.02,-0.06,0.06
32.80,0.04,-0.04,-0.05,0.07
32.81,0.05,-0.05,-0.05,0.08
32.82,0.05,-0.05,-0.06,0.09
32.83,0.05,-0.05,-0.06,0.09
32.84,0.04,-0.04,-0.07,0.09
32.85,0.04,-0.03,-0.08,0.09
32.86,0.03,-0.02,-0.09,0.10
32.87,0.02,-0.02,-0.08,0.09
32.88,0.02,-0.02,-0.07,0.08
32.89,0.01,-0.03,-0.06,0.07
32.90,0.01,-0.03,-0.04,0.05
32.91,0.02,-0.01,-0.02,0.03
32.92,0.02,0.01,0.00,0.02
32.93,0.01,0.01,0.03,0.04
32.94,0.01,0.00,0.05,0.05
32.95,0.02,-0.02,0.05,0.06
32.96,0.03,-0.03,0.04,0.06
32.97,0.03,-0.02,0.03,0.05
32.98,0.03,0.01,0.03,0.04
32.99,0.02,0.04,0.03,0.06
33.00,0.01,0.06,0.04,0.07
33.01,0.01,0.06,0.06,0.09
33.02,0.00,0.05,0.07,0.08
33.03,0.00,0.02,0.07,0.07
33.04,0.00,0.00,0.07,0.07
33.05,-0.01,-0.01,0.06,0.06
33.06,-0.01,-0.01,0.04,0.04
33.07,-0.02,0.01,0.02,0.03
33.08,-0.02,0.02,0.01,0.03
33.09,-0.01,0.02,0.00,0.02
33.10,0.01,0.01,0.00,0.02
33.11,0.03,0.00,0.00,0.03
33.12,0.04,-0.02,0.00,0.04
33.13,0.03,-0.03,0.00,0.04
33.14,0.00,-0.04,0.00,0.04
33.15,-0.03,-0.03,0.00,0.05
33.16,-0.04,-0.03,0.00,0.05
33.17,-0.03,-0.04,-0.01,0.05
33.18,-0.01,-0.04,-0.02,0.04
33.19,0.02,-0.03,-0.02,0.05
33.20,0.03,-0.03,-0.03,0.05
33.21,0.03,-0.03,-0.02,0.05
33.22,0.02,-0.03,-0.02,0.04
33.23,0.01,-0.03,-0.02,0.04
33.24,0.00,-0.03,-0.02,0.04
33.25,0.00,-0.02,-0.01,0.03
33.26,-0.01,-0.02,-0.01,0.03
33.27,-0.03,-0.02,-0.01,0.03
33.28,-0.03,-0.01,-0.01,0.04
33.29,-0.03,0.00,-0.02,0.03
33.30,-0.02,0.01,-0.02,0.03
33.31,-0.01,-0.01,-0.01,0.02
33.32,0.00,-0.02,-0.01,0.02
33.33,0.01,-0.03,-0.01,0.03
33.34,0.02,-0.03,-0.01,0.04
33.35,0.01,-0.04,-0.01,0.04
33.36,0.00,-0.03,-0.01,0.03
33.37,-0.01,-0.02,-0.01,0.02
33.38,-0.02,0.00,-0.01,0.02
33.39,-0.02,0.01,0.00,0.02
33.40,-0.01,0.02,0.01,0.02
33.41,0.00,0.01,0.02,0.02
33.42,0.00,0.00,0.02,0.02
33.43,0.00,-0.01,0.02,0.02
33.44,-0.01,-0.01,0.01,0.02
33.45,-0.02,0.00,0.00,0.02
33.46,-0.01,0.01,-0.01,0.02
33.47,-0.01,0.02,-0.01,0.02
33.48,0.00,0.02,-0.01,0.03
33.49,0.00,0.02,-0.01,0.02
33.50,-0.01,0.01,0.00,0.01
33.51,-0.01,0.00,0.01,0.02
33.52,-0.02,-0.01,0.02,0.03
33.53,-0.02,-0.03,0.02,0.04
33.54,-0.02,-0.04,0.02,0.05
33.55,-0.02,-0.04,0.01,0.05
33.56,-0.02,-0.04,0.00,0.04
33.57,-0.02,-0.04,-0.01,0.05
33.58,-0.02,-0.03,-0.01,0.04
33.59,-0.02,-0.02,-0.02,0.04
33.60,-0.03,-0.01,-0.02,0.03
33.61,-0.02,0.00,-0.01,0.02
33.62,-0.01,-0.01,0.00,0.01
33.63,-0.01,-0.03,0.00,0.03
33.64,0.00,-0.04,0.01,0.04
33.65,0.00,-0.04,0.00,0.04
33.66,0.00,-0.03,0.00,0.03
33.67,-0.01,-0.02,-0.01,0.02
33.68,-0.01,0.00,-0.02,0.02
33.69,-0.01,0.02,-0.02,0.03
33.70,-0.02,0.02,-0.01,0.03
33.71,-0.01,0.02,0.00,0.02
33.72,-0.01,0.02,0.01,0.02
33.73,0.00,0.01,0.02,0.02
33.74,0.00,0.00,0.02,0.02
33.75,0.00,0.00,0.03,0.03
33.76,0.01,0.00,0.03,0.03
33.77,0.01,-0.01,0.02,0.02
33.78,0.00,-0.01,0.02,0.02
33.79,-0.01,-0.01,0.01,0.02
33.80,-0.02,-0.01,0.00,0.02
33.81,-0.02,-0.01,-0.01,0.02
33.82,-0.01,0.00,-0.02,0.02
33.83,-0.01,0.00,-0.03,0.03
33.84,-0.01,0.01,-0.02,0.03
33.85,-0.01,0.01,-0.02,0.02
33.86,-0.01,0.00,0.00,0.01
33.87,-0.01,-0.01,0.01,0.02
33.88,-0.01,-0.01,0.01,0.02
33.89,-0.01,-0.02,0.02,0.03
33.90,-0.01,-0.02,0.01,0.03
33.91,-0.01,-0.02,0.00,0.03
33.92,-0.01,-0.02,-0.01,0.02
33.93,0.00,-0.02,-0.02,0.02
33.94,0.00,-0.01,-0.02,0.02
33.95,-0.01,-0.01,-0.02,0.02
33.96,-0.01,0.00,-0.01,0.01
33.97,0.00,0.00,-0.01,0.01
33.98,0.01,-0.01,0.00,0.01
33.99,0.01,-0.01,0.00,0.02
34.00,0.02,-0.01,-0.01,0.02
34.01,0.01,-0.01,-0.01,0.02
34.02,0.01,0.00,-0.01,0.01
34.03,0.00,0.01,0.00,0.01
34.04,0.00,0.01,0.00,0.01
34.05,-0.01,0.00,0.00,0.01
34.06,-0.01,0.00,0.00,0.01
34.07,0.00,-0.01,-0.01,0.01
34.08,0.01,-0.01,-0.01,0.02
34.09,0.02,-0.01,-0.01,0.03
34.10,0.04,0.00,-0.01,0.04
34.11,0.03,0.00,-0.01,0.03
34.12,0.03,0.00,0.00,0.03
34.13,0.02,0.00,0.01,0.02
34.14,0.01,0.00,0.01,0.02
34.15,0.00,0.00,0.00,0.01
34.16,0.00,0.01,0.00,0.01
34.17,-0.01,0.01,-0.01,0.02
34.18,-0.01,0.02,-0.02,0.03
34.19,0.00,0.03,-0.03,0.04
34.20,0.01,0.02,-0.03,0.04
34.21,0.02,0.00,-0.02,0.03
34.22,0.02,-0.01,-0.01,0.03
34.23,0.03,-0.02,0.01,0.03
34.24,0.02,-0.02,0.02,0.04
34.25,0.01,-0.02,0.03,0.03
34.26,0.00,-0.01,0.02,0.02
34.27,0.00,-0.01,0.01,0.01
34.28,0.00,0.00,0.00,0.00
34.29,0.00,0.00,-0.01,0.01
34.30,0.00,-0.01,-0.02,0.02
34.31,0.01,-0.01,-0.02,0.02
34.32,0.02,-0.01,-0.01,0.03
34.33,0.02,-0.01,0.00,0.02
34.34,0.00,0.00,0.01,0.01
34.35,-0.02,0.00,0.02,0.02
34.36,-0.01,0.00,0.01,0.02
34.37,0.00,0.00,0.00,0.00
34.38,0.01,0.00,-0.01,0.02
34.39,0.02,-0.01,-0.01,0.02
34.40,0.02,0.00,0.00,0.02
34.41,0.02,0.00,0.01,0.02
34.42,0.01,0.01,0.01,0.02
34.43,0.00,0.01,0.01,0.01
34.44,0.00,0.00,0.01,0.01
34.45,0.00,0.00,0.01,0.01
34.46,0.00,0.00,0.00,0.01
34.47,0.00,0.01,0.00,0.01
34.48,0.00,0.01,0.00,0.01
34.49,-0.01,0.01,-0.01,0.01
34.50,-0.02,0.01,-0.01,0.02
34.51,-0.02,0.01,-0.01,0.02
34.52,-0.02,0.00,0.00,0.02
34.53,-0.01,-0.01,0.00,0.01
34.54,0.00,-0.01,0.01,0.02
34.55,0.02,-0.02,0.00,0.03
34.56,0.02,-0.02,0.01,0.03
34.57,0.02,-0.01,0.01,0.02
34.58,0.02,-0.01,0.01,0.02
34.59,0.02,0.00,0.00,0.02
34.60,0.02,0.00,0.00,0.02
34.61,0.01,0.00,-0.01,0.01
34.62,0.00,0.00,-0.01,0.01
34.63,-0.01,0.01,-0.02,0.02
34.64,-0.01,0.01,-0.03,0.03
34.65,-0.01,0.01,-0.02,0.03
34.66,-0.01,-0.01,-0.02,0.02
34.67,0.00,-0.01,-0.01,0.02
34.68,0.01,-0.02,-0.01,0.03
34.69,0.02,-0.02,-0.01,0.03
34.70,0.03,-0.02,-0.02,0.04
34.71,0.03,-0.02,-0.02,0.04
34.72,0.02,-0.01,-0.01,0.03
34.73,0.00,-0.01,-0.01,0.01
34.74,-0.01,0.00,0.00,0.01
34.75,-0.02,0.00,0.01,0.02
34.76,-0.01,-0.01,0.00,0.02
34.77,0.00,-0.01,0.01,0.02
34.78,0.01,-0.02,0.01,0.02
34.79,0.02,-0.02,0.00,0.03
34.80,0.03,-0.02,-0.01,0.04
34.81,0.03,0.00,-0.02,0.04
34.82,0.02,0.01,-0.02,0.03
34.83,0.01,0.02,-0.02,0.03
34.84,0.00,0.02,-0.02,0.02
34.84,0.01,0.00,-0.01,0.02
34.85,0.02,-0.02,-0.01,0.03
34.86,0.02,-0.03,-0.01,0.04
34.87,0.02,-0.03,-0.01,0.04
34.88,0.00,-0.03,-0.01,0.03
34.89,-0.01,-0.04,0.00,0.04
34.90,-0.02,-0.05,-0.01,0.05
34.91,-0.01,-0.07,-0.02,0.07
34.92,0.01,-0.09,-0.04,0.10
34.93,0.02,-0.10,-0.05,0.11
34.94,0.02,-0.09,-0.05,0.11
34.95,-0.01,-0.10,-0.03,0.10
34.96,-0.02,-0.07,0.00,0.08
34.97,-0.02,-0.09,0.00,0.09
34.98,-0.02,-0.12,-0.01,0.12
34.99,-0.02,-0.13,-0.02,0.14
35.00,-0.02,-0.15,-0.03,0.16
35.01,-0.02,-0.19,-0.02,0.19
35.02,-0.01,-0.17,-0.01,0.17
35.03,0.01,-0.16,0.00,0.16
35.04,0.01,-0.14,0.01,0.14
35.05,0.02,-0.11,0.01,0.12
35.06,0.02,-0.09,0.00,0.09
35.07,0.02,-0.03,-0.01,0.04
35.08,0.01,0.00,-0.01,0.01
35.09,0.01,0.02,-0.01,0.02
35.10,0.01,0.04,-0.01,0.04
35.11,0.01,0.04,-0.01,0.04
35.12,0.01,0.03,0.00,0.03
35.13,0.01,0.02,0.01,0.02
35.14,0.03,0.01,0.01,0.03
35.15,0.05,0.01,0.02,0.05
35.16,0.06,0.02,0.02,0.06
35.17,0.06,0.02,0.01,0.07
35.18,0.05,0.01,0.01,0.05
35.19,0.03,0.02,0.00,0.04
35.20,0.02,0.04,0.00,0.04
35.21,0.01,0.05,0.01,0.05
35.22,0.01,0.06,0.03,0.07
35.23,0.00,0.06,0.06,0.08
35.24,0.00,0.04,0.08,0.09
35.25,0.00,0.02,0.09,0.09
35.26,0.01,0.00,0.10,0.10
35.27,0.02,0.00,0.09,0.09
35.28,0.03,0.02,0.07,0.08
35.29,0.03,0.04,0.06,0.08
35.30,0.02,0.03,0.06,0.07
35.31,0.00,0.01,0.06,0.06
35.32,-0.01,0.00,0.06,0.06
35.33,-0.02,-0.01,0.06,0.06
35.34,-0.03,-0.01,0.06,0.07
35.35,-0.05,-0.02,0.06,0.08
35.36,-0.06,-0.02,0.05,0.08
35.37,-0.05,-0.02,0.03,0.06
35.38,-0.05,-0.02,0.02,0.05
35.39,-0.04,-0.03,0.00,0.05
35.40,-0.03,-0.04,-0.01,0.06
35.41,-0.02,-0.05,-0.03,0.06
35.42,-0.01,-0.04,-0.04,0.06
35.43,-0.01,-0.04,-0.04,0.06
35.44,-0.03,-0.03,-0.04,0.06
35.45,-0.03,-0.03,-0.05,0.07
35.46,-0.03,-0.03,-0.05,0.07
35.47,-0.02,-0.02,-0.06,0.07
35.48,-0.01,-0.02,-0.07,0.07
35.49,0.00,-0.02,-0.07,0.07
35.50,0.00,-0.02,-0.07,0.08
35.51,-0.01,-0.01,-0.07,0.07
35.52,-0.02,-0.01,-0.06,0.06
35.53,-0.02,0.01,-0.06,0.06
35.54,-0.01,0.01,-0.06,0.06
35.55,0.01,0.02,-0.07,0.07
35.56,0.03,0.02,-0.08,0.09
35.57,0.05,0.02,-0.09,0.11
35.58,0.06,0.02,-0.09,0.11
35.59,0.05,0.04,-0.09,0.11
35.60,0.03,0.04,-0.07,0.09
35.61,0.01,0.04,-0.05,0.07
35.62,0.00,0.04,-0.03,0.05
35.63,0.01,0.04,-0.03,0.05
35.64,0.03,0.03,-0.03,0.06
35.65,0.04,0.02,-0.04,0.06
35.66,0.03,0.00,-0.05,0.06
35.67,0.01,-0.03,-0.05,0.06
35.68,-0.01,-0.04,-0.05,0.07
35.69,-0.02,-0.04,-0.05,0.07
35.70,-0.03,-0.03,-0.04,0.06
35.71,-0.03,-0.02,-0.03,0.04
35.72,-0.18,0.10,-0.04,0.21
35.73,-0.24,0.26,-0.08,0.36
35.74,-0.24,0.27,-0.12,0.38
35.75,-0.11,0.21,-0.11,0.26
35.76,0.08,0.03,-0.07,0.11
35.77,0.24,-0.15,0.03,0.28
35.78,0.30,-0.26,0.12,0.41
35.79,0.07,-0.16,0.02,0.17
35.80,0.04,-0.16,0.02,0.17
35.81,0.00,-0.11,0.02,0.11
35.82,-0.05,-0.04,0.00,0.07
35.83,-0.09,0.04,-0.01,0.10
35.84,-0.10,0.09,-0.03,0.14
35.85,-0.08,0.11,-0.03,0.14
35.86,-0.06,0.09,-0.02,0.11
35.87,-0.04,0.05,0.01,0.06
35.88,-0.02,0.00,0.04,0.04
35.89,-0.01,-0.04,0.07,0.08
35.90,-0.01,-0.06,0.08,0.10
35.91,-0.01,-0.05,0.09,0.11
35.92,-0.01,-0.03,0.09,0.10
35.93,0.00,0.00,0.07,0.07
35.94,0.00,0.04,0.04,0.05
35.95,0.00,0.06,0.02,0.06
35.96,-0.01,0.07,0.00,0.07
35.97,-0.04,0.06,0.01,0.07
35.98,-0.07,0.04,0.03,0.08
35.99,-0.09,0.00,0.05,0.10
36.00,-0.09,-0.03,0.07,0.12
36.01,-0.08,-0.05,0.08,0.12
36.02,-0.07,-0.04,0.07,0.11
36.03,-0.05,-0.03,0.06,0.08
36.04,-0.05,-0.01,0.04,0.07
36.05,-0.07,0.01,0.02,0.07
36.06,-0.09,0.02,0.02,0.09
36.07,-0.11,0.02,0.04,0.12
36.08,-0.11,0.01,0.06,0.13
36.09,-0.10,0.00,0.08,0.13
36.10,-0.08,-0.01,0.09,0.12
36.11,-0.07,-0.03,0.10,0.13
36.12,-0.06,-0.05,0.11,0.13
36.13,-0.06,-0.06,0.10,0.13
36.14,-0.06,-0.05,0.10,0.13
36.15,-0.06,-0.05,0.08,0.11
36.16,-0.06,-0.04,0.07,0.10
36.17,-0.05,-0.02,0.07,0.09
36.18,-0.05,-0.02,0.07,0.09
36.19,-0.04,-0.02,0.08,0.09
36.20,-0.03,-0.02,0.08,0.08
36.21,0.00,-0.03,0.07,0.08
36.22,0.02,-0.03,0.06,0.07
36.23,0.05,-0.01,0.06,0.08
36.24,0.07,0.02,0.05,0.09
36.25,0.10,0.05,0.05,0.12
36.26,0.13,0.07,0.04,0.16
36.27,0.17,0.06,0.04,0.18
36.28,0.19,0.01,0.05,0.20
36.29,0.20,-0.04,0.07,0.22
36.30,0.19,-0.09,0.09,0.23
36.31,0.18,-0.09,0.12,0.23
36.32,0.17,-0.05,0.12,0.22
36.33,0.14,0.01,0.12,0.19
36.34,0.07,0.06,0.12,0.15
36.35,-0.02,0.07,0.10,0.12
36.36,-0.09,0.08,0.08,0.14
36.37,-0.12,0.09,0.06,0.16
36.38,-0.10,0.08,0.04,0.13
36.39,-0.05,0.07,0.02,0.08
36.40,0.02,0.05,0.01,0.05
36.41,0.07,0.03,0.01,0.08
36.42,0.09,0.02,0.03,0.10
36.43,0.07,0.00,0.05,0.09
36.44,0.03,-0.02,0.07,0.08
36.45,0.01,-0.03,0.08,0.08
36.46,0.01,-0.01,0.06,0.06
36.47,0.03,0.01,0.03,0.04
36.48,0.05,0.04,0.00,0.06
36.49,0.07,0.06,-0.01,0.09
36.50,0.08,0.07,-0.02,0.11
36.51,0.08,0.07,-0.01,0.11
36.52,0.07,0.07,0.01,0.10
36.53,0.07,0.06,0.04,0.10
36.54,0.09,0.05,0.06,0.11
36.55,0.09,0.05,0.08,0.13
36.56,0.09,0.04,0.10,0.14
36.57,0.07,0.03,0.11,0.13
36.58,0.06,0.03,0.10,0.12
36.59,0.05,0.04,0.08,0.10
36.60,0.04,0.04,0.06,0.08
36.61,0.04,0.06,0.03,0.08
36.62,0.05,0.07,0.02,0.09
36.63,0.05,0.07,0.02,0.09
36.64,0.06,0.07,0.03,0.09
36.65,0.07,0.06,0.03,0.10
36.66,0.06,0.05,0.04,0.09
36.67,0.05,0.03,0.03,0.07
36.68,0.04,0.02,0.02,0.05
36.69,0.03,0.00,0.01,0.03
36.70,0.01,-0.02,-0.01,0.02
36.71,-0.01,-0.02,-0.02,0.03
36.72,-0.03,-0.02,-0.03,0.04
36.73,-0.03,-0.01,-0.03,0.04
36.74,-0.02,0.00,-0.03,0.04
36.75,-0.01,0.00,-0.02,0.02
36.76,0.00,0.00,-0.01,0.01
36.77,0.01,0.00,-0.01,0.01
36.78,0.01,0.00,0.00,0.01
36.79,0.01,0.01,0.00,0.01
36.80,0.01,0.02,0.00,0.02
36.81,0.03,0.04,-0.01,0.05
36.82,0.04,0.06,-0.02,0.07
36.83,0.03,0.07,-0.01,0.08
36.84,0.01,0.08,-0.01,0.08
36.85,0.00,0.07,0.00,0.07
36.86,0.00,0.06,0.01,0.06
36.87,0.00,0.04,0.02,0.05
36.88,0.01,0.02,0.02,0.03
36.89,0.02,0.00,0.01,0.02
36.90,0.02,0.00,0.00,0.02
36.91,0.00,0.01,-0.02,0.02
36.92,-0.02,0.02,-0.03,0.04
36.93,-0.04,0.04,-0.02,0.06
36.94,-0.05,0.04,-0.01,0.06
36.95,-0.04,0.03,0.00,0.05
36.96,-0.02,0.01,0.01,0.02
36.97,-0.01,0.00,0.01,0.01
36.98,-0.01,0.00,0.01,0.01
36.99,-0.02,-0.01,0.01,0.03
37.00,-0.05,-0.01,0.00,0.05
37.01,-0.06,0.00,0.01,0.06
37.02,-0.06,0.01,0.00,0.06
37.03,-0.06,0.00,-0.01,0.07
37.04,-0.06,0.01,-0.02,0.06
37.05,-0.06,0.01,-0.02,0.06
37.06,-0.06,-0.01,-0.01,0.06
37.07,-0.06,-0.02,0.00,0.07
37.08,-0.06,-0.03,0.01,0.07
37.09,-0.05,-0.04,0.02,0.07
37.10,-0.05,-0.04,0.02,0.06
37.11,-0.04,-0.04,0.01,0.06
37.12,-0.05,-0.03,0.00,0.06
37.13,-0.06,-0.01,-0.01,0.06
37.14,-0.08,0.01,-0.02,0.08
37.15,-0.10,0.03,-0.03,0.11
37.16,-0.13,0.03,-0.03,0.14
37.17,-0.16,0.02,-0.03,0.16
37.18,-0.17,0.02,-0.03,0.18
37.19,-0.18,0.01,-0.03,0.18
37.20,-0.17,0.01,-0.03,0.17
37.21,-0.14,0.01,-0.04,0.15
37.22,-0.12,0.03,-0.03,0.13
37.23,-0.11,0.04,-0.02,0.12
37.24,-0.12,0.03,-0.02,0.12
37.25,-0.14,0.02,-0.03,0.15
37.26,-0.16,0.03,-0.03,0.16
37.27,-0.17,0.02,-0.03,0.18
37.28,-0.15,0.04,-0.04,0.16
37.29,-0.11,0.04,-0.04,0.12
37.30,-0.09,0.04,-0.03,0.10
37.31,-0.09,0.01,-0.03,0.09
37.32,-0.10,0.00,-0.03,0.10
37.33,-0.11,-0.02,-0.03,0.12
37.34,-0.11,-0.03,-0.03,0.12
37.35,-0.11,-0.04,-0.03,0.12
37.36,-0.11,-0.06,-0.03,0.13
37.37,-0.11,-0.06,-0.03,0.12
37.38,-0.10,-0.03,-0.03,0.11
37.39,-0.09,-0.02,-0.02,0.10
37.40,-0.08,0.00,-0.02,0.08
37.41,-0.06,0.00,-0.03,0.07
37.42,-0.05,0.00,-0.03,0.06
37.43,-0.04,-0.01,-0.04,0.05
37.44,-0.03,-0.02,-0.04,0.05
37.45,-0.03,-0.04,-0.03,0.05
37.46,-0.04,-0.05,-0.02,0.06
37.47,-0.05,-0.05,-0.01,0.07
37.48,-0.07,-0.04,-0.02,0.08
37.49,-0.10,-0.04,-0.02,0.10
37.50,-0.13,-0.01,-0.03,0.14
37.51,-0.17,0.00,-0.04,0.18
37.52,-0.21,0.00,-0.06,0.21
37.53,-0.22,0.01,-0.07,0.23
37.54,-0.22,-0.01,-0.07,0.23
37.55,-0.21,-0.01,-0.07,0.22
37.56,-0.19,-0.01,-0.07,0.20
37.57,-0.16,0.00,-0.05,0.17
37.58,-0.14,0.03,-0.04,0.14
37.59,-0.12,0.06,-0.03,0.14
37.60,-0.10,0.08,-0.02,0.13
37.61,-0.11,0.08,-0.02,0.13
37.62,-0.14,0.10,-0.03,0.18
37.63,-0.19,0.11,-0.02,0.22
37.64,-0.23,0.13,-0.02,0.26
37.65,-0.24,0.12,-0.01,0.27
37.66,-0.21,0.10,0.00,0.23
37.67,-0.16,0.05,0.02,0.17
37.68,-0.09,0.02,0.04,0.10
37.69,-0.02,0.01,0.05,0.06
37.70,0.05,0.00,0.06,0.08
37.71,0.09,0.02,0.05,0.11
37.72,0.09,0.04,0.05,0.11
37.73,0.07,0.05,0.03,0.09
37.74,0.04,0.07,0.02,0.09
37.75,0.02,0.09,0.02,0.09
37.76,0.01,0.08,0.03,0.08
37.77,0.02,0.05,0.04,0.07
37.78,0.00,0.00,0.05,0.06
37.79,-0.03,-0.04,0.07,0.08
37.80,-0.05,-0.05,0.07,0.10
37.81,-0.04,-0.04,0.05,0.08
37.82,-0.03,-0.02,0.03,0.05
37.83,-0.02,0.01,0.01,0.02
37.84,0.00,0.03,-0.01,0.03
37.85,0.01,0.04,-0.02,0.04
37.86,-0.01,0.04,-0.03,0.05
37.87,-0.06,0.03,-0.03,0.07
37.88,-0.12,0.02,-0.02,0.12
37.89,-0.16,-0.01,-0.01,0.16
37.90,-0.18,-0.04,-0.01,0.18
37.91,-0.16,-0.06,-0.01,0.17
37.92,-0.12,-0.06,-0.02,0.14
37.93,-0.08,-0.04,-0.04,0.10
37.94,-0.05,-0.06,-0.05,0.09
37.95,-0.04,-0.04,-0.05,0.07
37.96,-0.02,-0.02,-0.04,0.05
37.97,-0.03,-0.02,-0.02,0.04
37.98,-0.06,-0.01,0.00,0.07
37.99,-0.08,-0.01,-0.01,0.08
38.00,-0.07,0.00,-0.03,0.07
38.01,-0.05,0.01,-0.04,0.07
38.02,-0.04,0.01,-0.05,0.07
38.03,-0.03,0.01,-0.06,0.07
38.04,-0.02,0.01,-0.06,0.06
38.05,0.01,0.00,-0.06,0.06
38.06,0.03,0.01,-0.05,0.06
38.07,0.04,0.02,-0.05,0.07
38.08,0.06,0.04,-0.05,0.09
38.09,0.08,0.04,-0.04,0.10
38.10,0.10,0.04,-0.05,0.12
38.11,0.09,0.06,-0.06,0.12
38.12,0.07,0.06,-0.06,0.11
38.13,0.01,0.05,-0.06,0.08
38.14,-0.05,0.04,-0.04,0.08
38.15,-0.09,0.03,-0.03,0.10
38.16,-0.09,0.03,-0.03,0.10
38.17,-0.06,0.04,-0.05,0.08
38.18,-0.04,0.06,-0.08,0.11
38.19,-0.07,0.14,-0.15,0.22
38.20,-0.11,0.18,-0.14,0.25
38.21,-0.13,0.15,-0.14,0.24
38.22,-0.13,0.17,-0.14,0.25
38.23,-0.09,0.13,-0.09,0.18
38.24,-0.02,0.05,-0.05,0.07
38.25,0.05,0.04,-0.03,0.07
38.26,0.10,0.02,0.01,0.10
38.27,0.10,-0.02,0.05,0.11
38.28,0.09,0.00,0.08,0.11
38.29,0.06,0.03,0.07,0.10
38.30,0.03,0.07,0.05,0.09
38.31,-0.01,0.09,0.03,0.10
38.32,-0.03,0.09,0.00,0.10
38.33,-0.04,0.08,-0.02,0.09
38.34,-0.02,0.06,-0.02,0.07
38.35,0.00,0.03,-0.01,0.03
38.36,0.01,0.00,0.01,0.02
38.37,0.00,-0.02,0.03,0.04
38.38,-0.02,-0.03,0.05,0.06
38.39,-0.03,-0.02,0.05,0.06
38.40,-0.03,0.00,0.03,0.04
38.41,-0.03,0.01,0.02,0.04
38.42,-0.04,0.02,0.01,0.04
38.43,-0.02,0.03,0.00,0.04
38.44,-0.01,0.02,0.00,0.03
38.45,-0.01,0.02,0.02,0.03
38.46,-0.01,0.01,0.03,0.04
38.47,-0.04,0.01,0.03,0.05
38.48,-0.08,-0.01,0.03,0.09
38.49,-0.14,-0.05,0.03,0.15
38.50,-0.18,-0.08,0.04,0.20
38.51,-0.19,-0.12,0.05,0.23
38.52,-0.17,-0.09,0.04,0.20
38.53,-0.13,-0.09,0.03,0.16
38.54,-0.06,-0.07,0.01,0.09
38.55,0.00,-0.01,0.00,0.02
38.56,0.03,0.03,-0.01,0.04
38.57,0.02,0.06,-0.01,0.06
38.58,-0.01,0.08,-0.01,0.08
38.59,-0.04,0.07,0.00,0.08
38.60,-0.06,0.04,0.01,0.07
38.61,-0.05,0.01,0.02,0.06
38.62,-0.04,-0.02,0.03,0.05
38.63,-0.02,-0.04,0.02,0.05
38.64,-0.01,-0.03,0.00,0.04
38.65,-0.01,-0.02,-0.01,0.02
38.66,-0.02,0.01,-0.01,0.03
38.67,-0.03,0.04,-0.01,0.05
38.68,-0.05,0.04,0.00,0.07
38.69,-0.07,0.04,0.02,0.08
38.70,-0.07,0.01,0.03,0.08
38.71,-0.08,-0.03,0.04,0.10
38.72,-0.09,-0.05,0.04,0.11
38.73,-0.07,-0.06,0.02,0.09
38.74,-0.05,-0.04,0.00,0.06
38.75,-0.03,-0.01,-0.01,0.04
38.76,-0.02,0.01,-0.02,0.03
38.77,-0.02,0.03,-0.01,0.04
38.78,-0.03,0.03,0.01,0.04
38.79,-0.03,0.01,0.02,0.04
38.80,-0.02,0.00,0.02,0.03
38.81,-0.02,-0.03,0.03,0.04
38.82,-0.05,-0.04,0.02,0.07
38.83,-0.09,-0.05,0.00,0.10
38.84,-0.12,-0.04,-0.03,0.13
38.85,-0.14,-0.01,-0.05,0.15
38.86,-0.14,-0.02,-0.06,0.15
38.87,-0.13,0.02,-0.06,0.15
38.88,-0.11,0.01,-0.05,0.12
38.89,-0.08,-0.02,-0.04,0.09
38.90,-0.08,-0.04,-0.02,0.09
38.91,-0.09,-0.05,-0.01,0.10
38.92,-0.09,-0.05,0.00,0.10
38.93,-0.08,-0.01,-0.02,0.08
38.94,-0.05,0.01,-0.04,0.07
38.95,-0.03,0.03,-0.07,0.08
38.96,-0.02,0.05,-0.07,0.09
38.97,-0.03,0.05,-0.06,0.08
38.98,-0.04,0.03,-0.04,0.07
38.99,-0.04,0.01,-0.02,0.05
39.00,-0.03,0.00,0.00,0.03
39.01,0.00,-0.01,0.02,0.02
39.02,0.03,0.00,0.03,0.05
39.03,0.06,0.01,0.04,0.07
39.04,0.05,0.02,0.03,0.06
39.05,0.01,0.03,0.02,0.04
39.06,-0.05,0.04,0.02,0.07
39.07,-0.08,0.04,0.01,0.09
39.08,-0.09,0.03,0.00,0.09
39.09,-0.08,0.02,0.00,0.08
39.10,-0.08,-0.01,-0.01,0.08
39.11,-0.08,-0.03,-0.01,0.09
39.12,-0.09,-0.03,-0.01,0.09
39.13,-0.09,-0.03,-0.01,0.10
39.14,-0.10,-0.03,0.00,0.10
39.15,-0.10,-0.04,0.00,0.11
39.16,-0.10,-0.06,0.01,0.12
39.17,-0.11,-0.07,0.00,0.13
39.18,-0.10,-0.05,0.00,0.11
39.19,-0.09,-0.02,0.00,0.09
39.20,-0.06,0.01,0.01,0.06
39.21,-0.06,0.05,0.03,0.08
39.22,-0.08,0.06,0.03,0.10
39.23,-0.13,0.07,0.03,0.15
39.24,-0.19,0.07,0.04,0.20
39.25,-0.23,0.06,0.05,0.24
39.26,-0.23,0.06,0.06,0.24
39.27,-0.21,0.06,0.06,0.22
39.28,-0.18,0.07,0.06,0.20
39.29,-0.14,0.06,0.05,0.16
39.30,-0.11,0.05,0.04,0.13
39.31,-0.10,0.06,0.03,0.12
39.32,-0.11,0.07,0.02,0.13
39.33,-0.14,0.09,0.02,0.17
39.34,-0.18,0.20,-0.04,0.27
39.35,-0.21,0.32,-0.06,0.39
39.36,-0.21,0.35,-0.08,0.41
39.37,-0.21,0.37,-0.08,0.43
39.38,-0.21,0.35,-0.06,0.41
39.39,-0.20,0.24,-0.02,0.31
39.40,-0.17,0.13,0.01,0.21
39.41,-0.12,-0.03,0.08,0.15
39.42,-0.07,-0.17,0.13,0.22
39.43,-0.03,-0.21,0.15,0.26
39.44,-0.02,-0.19,0.12,0.23
39.45,-0.04,-0.09,0.07,0.12
39.46,-0.09,0.03,0.01,0.09
39.47,-0.15,0.12,-0.03,0.19
39.48,-0.18,0.15,-0.06,0.24
39.49,-0.17,0.14,-0.08,0.23
39.50,-0.14,0.09,-0.06,0.17
39.51,-0.11,0.00,-0.01,0.11
39.52,-0.12,-0.09,0.06,0.16
39.53,-0.19,-0.15,0.13,0.28
39.54,-0.29,-0.21,0.18,0.40
39.55,-0.37,-0.22,0.21,0.48
39.56,-0.39,-0.19,0.18,0.47
39.57,-0.34,-0.10,0.11,0.37
39.58,-0.26,0.04,0.00,0.26
39.59,-0.18,0.16,-0.09,0.26
39.60,-0.15,0.25,-0.14,0.32
39.61,-0.19,0.24,-0.12,0.32
39.62,-0.26,0.12,-0.03,0.28
39.63,-0.31,-0.05,0.09,0.33
39.64,-0.31,-0.21,0.20,0.42
39.65,-0.25,-0.32,0.29,0.50
39.66,-0.17,-0.34,0.32,0.49
39.67,-0.11,-0.26,0.28,0.40
39.68,-0.07,-0.14,0.21,0.26
39.69,-0.07,0.00,0.11,0.13
39.70,-0.09,0.12,0.02,0.15
39.71,-0.11,0.19,-0.06,0.23
39.72,-0.12,0.20,-0.13,0.27
39.73,-0.13,0.16,-0.17,0.27
39.74,-0.12,0.09,-0.15,0.22
39.75,-0.12,-0.01,-0.09,0.15
39.76,-0.09,-0.09,-0.02,0.13
39.77,-0.04,-0.12,0.02,0.13
39.78,0.02,-0.08,0.02,0.09
39.79,0.07,0.00,0.00,0.07
39.80,0.08,0.05,-0.03,0.10
39.81,0.05,0.13,-0.07,0.15
39.82,0.05,0.11,-0.12,0.17
39.83,0.01,0.10,-0.12,0.15
39.84,-0.01,0.05,-0.10,0.11
39.85,-0.01,0.02,-0.07,0.07
39.86,0.01,0.00,-0.05,0.05
39.87,0.02,0.01,-0.03,0.03
39.88,0.02,0.03,0.01,0.04
39.89,0.02,0.05,0.04,0.07
39.90,0.02,0.07,0.04,0.08
39.91,-0.02,0.09,0.00,0.09
39.92,-0.10,0.12,-0.04,0.16
39.93,-0.19,0.15,-0.08,0.25
39.94,-0.23,0.16,-0.12,0.31
39.95,-0.30,0.18,-0.14,0.37
39.96,-0.23,0.18,-0.14,0.32
39.97,-0.26,0.15,-0.09,0.32
39.98,-0.25,0.12,-0.02,0.28
39.99,-0.26,0.06,0.03,0.27
40.00,-0.24,0.01,0.07,0.25
40.01,-0.18,-0.08,0.08,0.21
40.02,-0.12,-0.09,0.08,0.17
40.03,-0.08,-0.06,0.04,0.11
40.04,-0.06,0.01,0.00,0.06
40.05,-0.07,0.07,-0.04,0.11
40.06,-0.11,0.10,-0.06,0.16
40.07,-0.13,0.08,-0.07,0.17
40.08,-0.11,0.02,-0.07,0.13
40.09,-0.10,-0.06,-0.05,0.12
40.10,-0.07,-0.14,-0.01,0.16
40.11,-0.07,-0.19,0.04,0.21
40.12,-0.10,-0.18,0.07,0.22
40.13,-0.16,-0.13,0.08,0.22
40.14,-0.19,-0.07,0.06,0.21
40.15,-0.19,0.02,-0.01,0.19
40.16,-0.18,0.07,-0.07,0.21
40.17,-0.15,0.09,-0.11,0.21
40.18,-0.10,0.06,-0.14,0.18
40.19,-0.03,0.01,-0.15,0.15
40.20,0.03,-0.03,-0.13,0.13
40.21,0.08,-0.06,-0.08,0.13
40.22,0.10,-0.07,-0.04,0.13
40.23,0.10,-0.06,0.00,0.12
40.24,0.07,-0.05,0.03,0.10
40.25,0.04,-0.03,0.06,0.07
40.26,0.01,0.00,0.07,0.07
40.27,0.01,0.01,0.06,0.06
40.28,0.01,0.03,0.03,0.04
40.29,0.02,0.03,-0.01,0.04
40.30,0.02,0.01,-0.05,0.06
40.31,0.01,-0.01,-0.09,0.09
40.32,0.00,-0.04,-0.11,0.12
40.33,0.00,-0.07,-0.12,0.14
40.34,0.02,-0.09,-0.12,0.15
40.35,0.06,-0.11,-0.13,0.17
40.36,0.10,-0.12,-0.12,0.19
40.37,0.11,-0.13,-0.10,0.20
40.38,0.11,-0.13,-0.08,0.18
40.39,0.09,-0.13,-0.05,0.17
40.40,0.08,-0.15,-0.02,0.17
40.41,0.11,-0.16,-0.01,0.19
40.42,0.14,-0.17,0.00,0.22
40.43,0.17,-0.16,0.00,0.23
40.44,0.20,-0.17,0.00,0.26
40.45,0.23,-0.15,-0.01,0.27
40.46,0.24,-0.16,0.00,0.29
40.47,0.21,-0.15,0.01,0.26
40.48,0.15,-0.12,0.02,0.19
40.49,0.11,-0.12,0.05,0.17
40.50,0.12,-0.13,0.05,0.18
40.51,0.15,-0.08,0.04,0.17
40.52,0.18,-0.04,0.04,0.19
40.53,0.21,-0.05,0.05,0.23
40.54,0.24,-0.06,0.06,0.25
40.55,0.25,-0.06,0.06,0.26
40.56,0.26,-0.04,0.05,0.27
40.57,0.30,-0.03,0.03,0.31
40.58,0.35,-0.03,0.02,0.35
40.59,0.39,-0.06,0.01,0.39
40.60,0.37,-0.08,0.01,0.38
40.61,0.33,-0.08,0.03,0.34
40.62,0.32,-0.10,0.06,0.34
40.63,0.29,-0.13,0.07,0.33
40.64,0.28,-0.08,0.07,0.30
40.65,0.31,-0.02,0.08,0.32
40.66,0.39,0.01,0.10,0.41
40.67,0.51,0.00,0.11,0.52
40.68,0.61,0.01,0.12,0.62
40.69,0.68,-0.03,0.13,0.70
40.70,0.75,-0.02,0.15,0.76
40.71,0.81,-0.07,0.17,0.83
40.72,0.83,-0.12,0.15,0.85
40.73,0.77,-0.12,0.10,0.78
40.74,0.63,-0.05,0.06,0.64
40.75,0.47,0.00,0.05,0.47
40.76,0.31,0.08,0.04,0.32
40.77,0.16,0.18,0.03,0.24
40.78,0.09,0.27,0.03,0.28
40.79,0.08,0.30,0.02,0.32
40.80,0.14,0.30,0.04,0.33
40.81,0.25,0.27,0.06,0.37
40.82,0.40,0.21,0.10,0.46
40.83,0.55,0.12,0.12,0.57
40.84,0.64,0.05,0.13,0.66
40.85,0.66,-0.01,0.12,0.67
40.86,0.61,-0.02,0.12,0.62
40.87,0.53,-0.01,0.11,0.54
40.88,0.45,0.01,0.10,0.46
40.89,0.41,0.04,0.08,0.42
40.90,0.41,0.08,0.06,0.43
40.91,0.45,0.12,0.04,0.46
40.92,0.51,0.13,0.03,0.53
40.93,0.59,0.15,0.03,0.61
40.94,0.68,0.14,0.06,0.70
40.95,0.77,0.12,0.09,0.78
40.96,0.86,0.10,0.12,0.87
40.97,0.94,0.08,0.12,0.95
40.98,0.92,0.09,0.07,0.93
40.99,0.75,0.14,0.04,0.77
41.00,0.49,0.19,0.03,0.52
41.01,0.20,0.19,0.03,0.28
41.02,-0.02,0.20,0.01,0.20
41.03,-0.12,0.23,-0.05,0.27
41.04,-0.10,0.25,-0.12,0.29
41.05,0.00,0.22,-0.18,0.28
41.06,0.11,0.16,-0.20,0.28
41.07,0.22,0.09,-0.17,0.29
41.08,0.30,0.00,-0.12,0.32
41.09,0.35,-0.05,-0.06,0.36
41.10,0.38,-0.08,-0.02,0.39
41.11,0.38,-0.09,0.01,0.39
41.12,0.33,-0.05,0.01,0.34
41.13,0.25,-0.03,0.00,0.25
41.14,0.14,0.00,-0.01,0.15
41.15,0.06,0.03,-0.04,0.08
41.16,0.01,0.06,-0.08,0.10
41.17,-0.01,0.09,-0.11,0.14
41.18,0.00,0.08,-0.11,0.13
41.19,0.02,0.04,-0.08,0.09
41.20,0.06,0.01,-0.04,0.07
41.21,0.09,-0.04,0.01,0.10
41.22,0.12,-0.11,0.05,0.17
41.23,0.16,-0.15,0.07,0.23
41.24,0.19,-0.17,0.07,0.26
41.25,0.22,-0.14,0.04,0.26
41.26,0.21,-0.10,0.00,0.23
41.27,0.17,-0.03,-0.04,0.18
41.28,0.08,0.05,-0.09,0.13
41.29,-0.02,0.11,-0.12,0.16
41.30,-0.10,0.14,-0.14,0.23
41.31,-0.13,0.16,-0.16,0.26
41.32,-0.10,0.17,-0.18,0.26
41.33,-0.06,0.13,-0.17,0.22
41.34,0.00,0.07,-0.15,0.16
41.35,0.03,0.01,-0.09,0.10
41.36,0.05,-0.04,-0.04,0.08
41.37,0.07,-0.08,0.00,0.11
41.38,0.08,-0.10,0.01,0.13
41.39,0.07,-0.07,0.00,0.10
41.40,0.04,-0.02,-0.03,0.05
41.41,0.00,0.03,-0.06,0.07
41.42,-0.05,0.09,-0.09,0.13
41.43,-0.09,0.11,-0.11,0.18
41.44,-0.10,0.12,-0.12,0.20
41.45,-0.09,0.10,-0.13,0.18
41.46,-0.06,0.06,-0.12,0.15
41.47,-0.01,0.02,-0.11,0.11
41.48,0.04,-0.01,-0.09,0.10
41.49,0.07,-0.02,-0.07,0.10
41.50,0.08,-0.02,-0.05,0.10
41.51,0.06,0.01,-0.05,0.08
41.52,0.03,0.02,-0.04,0.05
41.53,-0.01,0.02,-0.03,0.04
41.54,-0.04,0.03,-0.04,0.07
41.55,-0.05,0.03,-0.04,0.07
41.56,-0.04,0.02,-0.04,0.06
41.57,-0.01,0.02,-0.03,0.04
41.58,0.01,0.00,-0.02,0.02
41.59,0.04,-0.01,0.00,0.05
41.60,0.07,-0.01,0.03,0.08
41.61,0.09,0.01,0.04,0.10
41.62,0.10,0.04,0.05,0.11
41.63,0.08,0.07,0.06,0.12
41.64,0.06,0.07,0.06,0.11
41.65,0.04,0.07,0.05,0.10
41.66,0.04,0.06,0.04,0.08
41.67,0.04,0.05,0.03,0.07
41.68,0.03,0.04,0.01,0.05
41.69,0.01,0.03,-0.01,0.03
41.70,-0.02,0.03,-0.02,0.04
41.71,-0.06,0.03,-0.02,0.07
41.72,-0.09,0.03,-0.01,0.09
41.73,-0.09,0.03,0.00,0.10
41.74,-0.08,0.03,0.01,0.08
41.75,-0.05,0.01,0.01,0.05
41.76,-0.02,0.01,0.01,0.03
41.77,0.00,0.01,0.01,0.02
41.78,0.00,0.01,0.01,0.01
41.79,-0.02,0.01,0.01,0.03
41.80,-0.04,0.01,0.01,0.05
41.81,-0.03,0.07,0.01,0.08
41.82,-0.06,0.10,0.01,0.12
41.83,-0.03,0.05,-0.01,0.06
41.84,-0.02,0.03,-0.01,0.03
41.85,0.01,0.02,-0.01,0.02
41.86,0.04,0.03,-0.01,0.05
41.87,0.04,0.05,-0.01,0.06
41.88,0.01,0.00,-0.01,0.02
41.89,0.00,0.01,0.00,0.01
41.90,0.01,0.01,0.01,0.02
41.91,0.01,-0.02,0.00,0.03
41.92,0.02,-0.01,0.00,0.02
41.93,0.02,-0.03,-0.02,0.04
41.94,0.02,-0.04,-0.03,0.05
41.95,0.01,-0.04,-0.04,0.06
41.96,-0.01,-0.04,-0.05,0.06
41.97,-0.02,-0.03,-0.04,0.05
41.98,-0.04,-0.01,-0.04,0.06
41.99,-0.05,0.01,-0.04,0.06
42.00,-0.05,0.01,-0.05,0.07
42.01,-0.04,0.00,-0.05,0.06
42.02,-0.02,0.03,-0.05,0.06
42.03,0.01,0.01,-0.05,0.05
42.04,0.02,0.01,-0.04,0.05
42.05,0.03,0.00,-0.02,0.04
42.06,0.03,-0.02,0.00,0.04
42.07,0.03,-0.01,0.02,0.04
42.08,0.02,-0.01,0.04,0.05
42.09,0.01,0.01,0.06,0.06
42.10,-0.01,0.02,0.07,0.07
42.11,-0.01,0.02,0.07,0.07
42.12,0.00,0.02,0.06,0.06
42.12,0.02,0.02,0.04,0.05
42.13,0.02,0.03,0.02,0.04
42.14,0.01,0.02,0.02,0.03
42.15,0.00,0.02,0.02,0.03
42.16,-0.01,0.03,0.03,0.04
42.17,0.00,0.03,0.05,0.06
42.18,0.00,0.03,0.06,0.07
42.19,0.01,0.02,0.08,0.08
42.20,0.02,0.01,0.08,0.08
42.21,0.02,0.00,0.07,0.07
42.22,0.02,0.00,0.06,0.06
42.23,0.02,0.00,0.04,0.04
42.24,0.01,0.00,0.03,0.03
42.25,-0.01,0.00,0.03,0.03
42.26,-0.01,0.01,0.04,0.04
42.27,0.00,0.00,0.06,0.06
42.28,0.02,-0.01,0.08,0.08
42.29,0.06,-0.02,0.08,0.10
42.30,0.09,-0.03,0.07,0.12
42.31,0.09,-0.04,0.05,0.11
42.32,0.05,-0.06,0.04,0.09
42.33,-0.03,-0.07,0.04,0.08
42.34,-0.09,-0.06,0.04,0.12
42.35,-0.12,-0.06,0.03,0.14
42.36,-0.12,-0.06,0.02,0.14
42.37,-0.08,-0.07,0.01,0.11
42.38,-0.03,-0.09,0.01,0.10
42.39,0.03,-0.10,0.03,0.11
42.40,0.08,-0.12,0.07,0.16
42.41,0.10,-0.14,0.11,0.20
42.42,0.11,-0.13,0.14,0.22
42.43,0.11,-0.11,0.16,0.22
42.44,0.11,-0.07,0.15,0.20
42.45,0.11,-0.03,0.11,0.16
42.46,0.10,0.00,0.06,0.12
42.47,0.09,0.02,0.01,0.09
42.48,0.06,0.03,-0.03,0.07
42.49,0.04,0.04,-0.05,0.07
42.50,0.02,0.04,-0.05,0.07
42.51,0.03,0.03,-0.03,0.05
42.52,0.06,-0.01,0.00,0.06
42.53,0.09,-0.06,0.03,0.11
42.54,0.11,-0.10,0.05,0.16
42.55,0.13,-0.13,0.07,0.20
42.56,0.14,-0.13,0.06,0.20
42.57,0.14,-0.11,0.05,0.19
42.58,0.13,-0.07,0.06,0.16
42.59,0.11,-0.09,0.10,0.17
42.60,0.07,-0.11,0.12,0.17
42.61,0.02,-0.06,0.11,0.13
42.62,0.00,-0.04,0.10,0.10
42.63,-0.01,-0.03,0.06,0.07
42.64,0.02,-0.05,0.06,0.08
42.65,0.06,-0.11,0.06,0.14
42.66,0.09,-0.13,0.07,0.17
42.67,0.09,-0.11,0.08,0.16
42.68,0.07,-0.09,0.09,0.15
